{
   "identifier":{
      "system":"urn:oid:2.16.840.1.113883.19.5.99999.1",
      "value":"TT988"
   },
   "timestamp":"2008-08-15T10:30:00.158815Z",
   "type":"document",
   "entry":[
      {
         "resource":{
            "identifier":{
               "system":"urn:oid:2.16.840.1.113883.19.5.99999.1",
               "value":"TT988"
            },
            "author":[
               {
                  "reference":"PractitionerRole/55c837aa015a214540ee84e7b6c57de8"
               }
            ],
            "confidentiality":"N",
            "id":"8afa1ea3d0b00ae3d3068edd2d809572",
            "date":"2008-08-15",
            "subject":{
               "reference":"Patient/50852d7579eefa2e08d4c1d663b5e921"
            },
            "title":"Patient Chart Summary",
            "custodian":{
               "reference":"Organization/7aec365dfedc274376481f5f95cbec10"
            },
            "resourceType":"Composition",
            "section":[
               {
                  "code":{
                     "coding":[
                        {
                           "code":"10157-6",
                           "system":"urn:oid:2.16.840.1.113883.6.1"
                        }
                     ]
                  },
                  "entry":[
                     {
                        "reference":"FamilyMemberHistory/c8424a4346a74683fe155423cc785fdf"
                     }
                  ],
                  "title":"FAMILY HISTORY"
               },
               {
                  "entry":[
                     {
                        "reference":"Observation/deba823ffc5715cfb7de91142d1a0142"
                     },
                     {
                        "reference":"Observation/d4bff4dcf358e41d9efca3a0088bd1cd"
                     },
                     {
                        "reference":"Observation/779bbf895832983422f3c7f25f3fda4b"
                     },
                     {
                        "reference":"Observation/72bd4db02d5ce88919acf99ec4b7a40f"
                     },
                     {
                        "reference":"Observation/5b9a3ecbd2c3093c49f45b9654b29bbd"
                     },
                     {
                        "reference":"Observation/4ae4d8413d11a07ca4705738f26e7413"
                     },
                     {
                        "reference":"Observation/252e36a12b7875be228e50986ad5b340"
                     },
                     {
                        "reference":"Observation/eff8f5f872c2867b872b2c29d68ef394"
                     }
                  ],
                  "title":"VITAL SIGNS",
                  "code":{
                     "coding":[
                        {
                           "code":"8716-3",
                           "display":"VITAL SIGNS",
                           "system":"urn:oid:2.16.840.1.113883.6.1"
                        }
                     ]
                  }
               },
               {
                  "title":"SOCIAL HISTORY",
                  "code":{
                     "coding":[
                        {
                           "display":"Social History",
                           "system":"urn:oid:2.16.840.1.113883.6.1",
                           "code":"29762-2"
                        }
                     ]
                  },
                  "entry":[
                     {
                        "reference":"Observation/95c2991dad87855e95ece6eb0e4b9783"
                     },
                     {
                        "reference":"Observation/03836f89baa1fe98a4f8aa99ec1556a1"
                     },
                     {
                        "reference":"Observation/ffa92531bf7627adff2dcda6eaec046d"
                     }
                  ]
               },
               {
                  "entry":[
                     {
                        "reference":"Encounter/a2c0e8a0e824ab057f5aa2e90a6c3ace"
                     }
                  ],
                  "title":"ENCOUNTERS",
                  "code":{
                     "coding":[
                        {
                           "system":"urn:oid:2.16.840.1.113883.6.1",
                           "code":"46240-8",
                           "display":"History of encounters"
                        }
                     ]
                  }
               },
               {
                  "entry":[
                     {
                        "reference":"Observation/987be6b25f066df3ebc8760b20c1e896"
                     },
                     {
                        "reference":"Observation/dff3005f43dd6b33a7ec6ba484ba0f99"
                     }
                  ],
                  "title":"FUNCTIONAL STATUS",
                  "code":{
                     "coding":[
                        {
                           "system":"urn:oid:2.16.840.1.113883.6.1",
                           "code":"47420-5",
                           "display":"Functional Status"
                        }
                     ]
                  }
               },
               {
                  "title":"PROBLEMS",
                  "code":{
                     "coding":[
                        {
                           "code":"11450-4",
                           "display":"PROBLEM LIST",
                           "system":"urn:oid:2.16.840.1.113883.6.1"
                        }
                     ]
                  },
                  "entry":[
                     {
                        "reference":"Condition/56722a50775e1d38c248c7f49b3cd723"
                     },
                     {
                        "reference":"Condition/35d36e9dde1aa0fe5619e2eb40ad3cfc"
                     },
                     {
                        "reference":"Condition/1ac184bd233ee86dcd7f20b8f597da9d"
                     },
                     {
                        "reference":"Condition/25a4da29896b9cd190b3baf028923b94"
                     }
                  ]
               },
               {
                  "title":"PROCEDURES",
                  "code":{
                     "coding":[
                        {
                           "code":"47519-4",
                           "display":"HISTORY OF PROCEDURES",
                           "system":"urn:oid:2.16.840.1.113883.6.1"
                        }
                     ]
                  },
                  "entry":[
                     {
                        "reference":"Procedure/7f676442d5683711614ceda79b3efa93"
                     }
                  ]
               },
               {
                  "title":"RESULTS",
                  "code":{
                     "coding":[
                        {
                           "code":"30954-2",
                           "display":"RESULTS",
                           "system":"urn:oid:2.16.840.1.113883.6.1"
                        }
                     ]
                  },
                  "entry":[
                     {
                        "reference":"DiagnosticReport/05d1fc7bfda947279022ade0247e77af"
                     },
                     {
                        "reference":"DiagnosticReport/a1cf0fc41341bedb8965b51617f20357"
                     }
                  ]
               },
               {
                  "code":{
                     "coding":[
                        {
                           "code":"46264-8",
                           "system":"urn:oid:2.16.840.1.113883.6.1"
                        }
                     ]
                  },
                  "entry":[
                     {
                        "reference":"Device/5ee8fdde0f888bb8a4f05b8388009031"
                     },
                     {
                        "reference":"Procedure/950a26576a2c79f890b41ef04429c18b"
                     },
                     {
                        "reference":"Device/d3dca7442e590736de2ca9feb9fe4f1d"
                     },
                     {
                        "reference":"Device/070a79b171b044c8164250f36d09a0cc"
                     }
                  ],
                  "title":"MEDICAL EQUIPMENT"
               },
               {
                  "entry":[
                     {
                        "reference":"MedicationStatement/67857c918b0b05f894686c521dd35527"
                     },
                     {
                        "reference":"MedicationStatement/473a96c06035d2c960ba2dc6fe72a627"
                     }
                  ],
                  "title":"MEDICATIONS",
                  "code":{
                     "coding":[
                        {
                           "code":"10160-0",
                           "display":"HISTORY OF MEDICATION USE",
                           "system":"urn:oid:2.16.840.1.113883.6.1"
                        }
                     ]
                  }
               },
               {
                  "entry":[
                     {
                        "reference":"Immunization/5bf10bc5556a6257f85ffb752dafaf4c"
                     },
                     {
                        "reference":"Immunization/24a7b141ec943087405c7956784c4164"
                     },
                     {
                        "reference":"Immunization/dfe7fd17a058c2cdcbbb0d4651396ad5"
                     },
                     {
                        "reference":"Immunization/066d0ca6cbfbbc8ba8a83f8e2facbd0d"
                     },
                     {
                        "reference":"Immunization/21fc2fb55f1022ec38945602d237830a"
                     }
                  ],
                  "title":"IMMUNIZATIONS",
                  "code":{
                     "coding":[
                        {
                           "display":"History of immunizations",
                           "system":"urn:oid:2.16.840.1.113883.6.1",
                           "code":"11369-6"
                        }
                     ]
                  }
               },
               {
                  "code":{
                     "coding":[
                        {
                           "code":"48765-2",
                           "system":"urn:oid:2.16.840.1.113883.6.1"
                        }
                     ]
                  },
                  "entry":[
                     {
                        "reference":"AllergyIntolerance/014d09b4a7add3cf067af2e183e29d9b"
                     },
                     {
                        "reference":"AllergyIntolerance/7e86092904c1edc7c10bf91db6ab18ec"
                     }
                  ],
                  "title":"ALLERGIES AND ADVERSE REACTIONS"
               }
            ],
            "attester":[
               {
                  "mode":"professional",
                  "party":{
                     "reference":"PractitionerRole/55c837aa015a214540ee84e7b6c57de8"
                  }
               },
               {
                  "party":{
                     "reference":"PractitionerRole/55c837aa015a214540ee84e7b6c57de8"
                  },
                  "mode":"legal"
               }
            ],
            "type":{
               "coding":[
                  {
                     "display":"Summarization of Episode Note",
                     "system":"urn:oid:2.16.840.1.113883.6.1",
                     "code":"34133-9"
                  }
               ]
            },
            "status":"preliminary"
         }
      },
      {
         "resource":{
            "id":"e4e3608bb55480dc5181bce296f01420",
            "identifier":[
               {
                  "value":"e4e3608bb55480dc5181bce296f01420",
                  "system":"urn:oid:google/reconciliation-id"
               }
            ],
            "resourceType":"Location",
            "address":{
               "line":[
                  "1004 Healthcare Drive"
               ],
               "city":"Portland",
               "state":"OR",
               "postalCode":"99123",
               "country":"US"
            }
         }
      },
      {
         "resource":{
            "resourceType":"Practitioner",
            "name":[
               {
                  "given":[
                     "Patricia"
                  ],
                  "use":"usual",
                  "family":"Primary"
               }
            ],
            "id":"a2d1849aa3bcf23e779a5a256510717e",
            "identifier":[
               {
                  "value":"a2d1849aa3bcf23e779a5a256510717e",
                  "system":"urn:oid:google/reconciliation-id"
               }
            ]
         }
      },
      {
         "resource":{
            "address":[
               {
                  "state":"OR",
                  "postalCode":"99123",
                  "country":"US",
                  "line":[
                     "1004 Health Drive"
                  ],
                  "city":"Portland"
               }
            ],
            "id":"3dffa979dcabbad90c399d5ae67d4f72",
            "resourceType":"Organization",
            "identifier":[
               {
                  "value":"219BX",
                  "system":"urn:oid:1.2.16.840.1.113883.4.6"
               },
               {
                  "system":"urn:oid:google/reconciliation-id",
                  "value":"5a159926a7ddf076a5fe3303a2ec21dd"
               }
            ],
            "name":"The DoctorsTogether Physician Group",
            "telecom":[
               {
                  "value":"tel: +1(555)555-5000",
                  "system":"phone"
               }
            ]
         }
      },
      {
         "resource":{
            "id":"99ff65822887d5f26a88b5bd889b7e1c",
            "identifier":[
               {
                  "value":"219BX",
                  "system":"urn:oid:2.16.840.1.113883.4.6"
               },
               {
                  "value":"8f88da60e21a2ddb5007459e1c61452a",
                  "system":"urn:oid:google/reconciliation-id"
               }
            ],
            "name":"The DoctorsTogether Physician Group",
            "telecom":[
               {
                  "value":"tel: +1(555)555-5000",
                  "system":"phone"
               }
            ],
            "address":[
               {
                  "state":"OR",
                  "postalCode":"99123",
                  "country":"US",
                  "line":[
                     "1007 Health Drive"
                  ],
                  "city":"Portland"
               }
            ],
            "resourceType":"Organization"
         }
      },
      {
         "resource":{
            "telecom":[
               {
                  "value":"tel:+1(555)555-1004",
                  "system":"phone"
               }
            ],
            "location":[
               {
                  "reference":"Location/e4e3608bb55480dc5181bce296f01420"
               }
            ],
            "practitioner":{
               "reference":"Practitioner/a2d1849aa3bcf23e779a5a256510717e"
            },
            "organization":{
               "reference":"Organization/3dffa979dcabbad90c399d5ae67d4f72"
            },
            "identifier":[
               {
                  "system":"urn:oid:2.16.840.1.113883.4.6",
                  "value":"5555555555"
               },
               {
                  "system":"urn:oid:google/reconciliation-id",
                  "value":"afdfca0e4daec99425e4b58ee41a2bb2"
               }
            ],
            "id":"56e0b7becb939173b9d9c658c9e82361",
            "resourceType":"PractitionerRole",
            "code":[
               {
                  "coding":[
                     {
                        "display":"Adult Medicine",
                        "system":"urn:oid:2.16.840.1.113883.6.101",
                        "code":"207QA0505X"
                     }
                  ]
               }
            ]
         }
      },
      {
         "resource":{
            "contact":[
               {
                  "telecom":[
                     {
                        "system":"phone",
                        "value":"tel:+1(555)555-2008"
                     }
                  ],
                  "address":{
                     "state":"OR",
                     "postalCode":"97867",
                     "country":"US",
                     "use":"home",
                     "line":[
                        "2222 Home Street"
                     ],
                     "city":"Beaverton"
                  },
                  "name":{
                     "given":[
                        "Boris"
                     ],
                     "use":"usual",
                     "family":"Betterhalf"
                  },
                  "relationship":[
                     {
                        "coding":[
                           {
                              "system":"urn:oid:2.16.840.1.113883.1.11.19830",
                              "code":"POWATT",
                              "display":"Power of Attorney"
                           }
                        ]
                     }
                  ]
               }
            ],
            "managingOrganization":{
               "reference":"Organization/99ff65822887d5f26a88b5bd889b7e1c"
            },
            "address":[
               {
                  "country":"US",
                  "use":"home",
                  "line":[
                     "2222 Home Street"
                  ],
                  "city":"Beaverton",
                  "state":"OR",
                  "postalCode":"97867"
               }
            ],
            "maritalStatus":{
               "coding":[
                  {
                     "system":"urn:oid:2.16.840.1.113883.5.2",
                     "code":"M",
                     "display":"Married"
                  }
               ]
            },
            "id":"50852d7579eefa2e08d4c1d663b5e921",
            "identifier":[
               {
                  "value":"444222222",
                  "system":"urn:oid:2.16.840.1.113883.4.1"
               },
               {
                  "value":"69ce2e98ae1cc95b086ffe52ee4bc1ef",
                  "system":"urn:oid:google/reconciliation-id"
               }
            ],
            "birthDate":"1975-05-01",
            "telecom":[
               {
                  "system":"phone",
                  "value":"tel:+1(555)555-2003"
               }
            ],
            "gender":"female",
            "extension":[
               {
                  "url":"http://hl7.org/fhir/us/core/StructureDefinition/us-core-race",
                  "extension":[
                     {
                        "valueCoding":{
                           "system":"urn:oid:2.16.840.1.113883.6.238",
                           "code":"2106-3",
                           "display":"White"
                        },
                        "url":"ombCategory"
                     }
                  ]
               },
               {
                  "extension":[
                     {
                        "url":"ombCategory",
                        "valueCoding":{
                           "code":"2186-5",
                           "display":"Not Hispanic or Latino",
                           "system":"urn:oid:2.16.840.1.113883.6.238"
                        }
                     }
                  ],
                  "url":"http://hl7.org/fhir/us/core/StructureDefinition/us-core-ethnicity"
               },
               {
                  "url":"http://hl7.org/fhir/StructureDefinition/patient-religion",
                  "extension":[
                     {
                        "url":"http://hl7.org/fhir/StructureDefinition/patient-religion",
                        "valueCodeableConcept":{
                           "coding":[
                              {
                                 "display":"Christian (non-Catholic, non-specific)",
                                 "system":"urn:oid:2.16.840.1.113883.5.1076",
                                 "code":"1013"
                              }
                           ]
                        }
                     }
                  ]
               },
               {
                  "extension":[
                     {
                        "url":"http://hl7.org/fhir/StructureDefinition/patient-birthPlace",
                        "valueAddress":{
                           "line":[
                              "4444 Home Street"
                           ],
                           "city":"Beaverton",
                           "state":"OR",
                           "postalCode":"97867",
                           "country":"US"
                        }
                     }
                  ],
                  "url":"http://hl7.org/fhir/StructureDefinition/patient-birthPlace"
               }
            ],
            "communication":[
               {
                  "language":{
                     "coding":[
                        {
                           "code":"en"
                        }
                     ]
                  },
                  "preferred":true
               }
            ],
            "resourceType":"Patient",
            "name":[
               {
                  "use":"usual",
                  "given":[
                     "Eve"
                  ]
               },
               {
                  "use":"usual",
                  "given":[
                     "Eve"
                  ]
               }
            ],
            "generalPractitioner":[
               {
                  "reference":"PractitionerRole/56e0b7becb939173b9d9c658c9e82361"
               }
            ]
         }
      },
      {
         "resource":{
            "name":"Good Health HIE",
            "telecom":[
               {
                  "value":"tel:+1(555)555-1009",
                  "system":"phone"
               }
            ],
            "address":[
               {
                  "state":"OR",
                  "postalCode":"99123",
                  "country":"US",
                  "line":[
                     "1009 Healthcare Drive"
                  ],
                  "city":"Portland"
               }
            ],
            "id":"7aec365dfedc274376481f5f95cbec10",
            "resourceType":"Organization",
            "identifier":[
               {
                  "value":"321CX",
                  "system":"urn:oid:2.16.840.1.113883.4.6"
               },
               {
                  "system":"urn:oid:google/reconciliation-id",
                  "value":"8f90523eca1a2ddb500745a068da32a1"
               }
            ]
         }
      },
      {
         "resource":{
            "status":"current",
            "id":"a7f91317fcc6267e973a436374080d00",
            "resourceType":"DocumentReference",
            "identifier":[
               {
                  "system":"urn:oid:google/reconciliation-id",
                  "value":"a7f91317fcc6267e973a436374080d00"
               }
            ],
            "content":[
               {
                  "attachment":{
                     "url":"http://example.com/url"
                  }
               }
            ]
         }
      },
      {
         "resource":{
            "identifier":[
               {
                  "system":"urn:oid:2.16.840.1.113883.4.6",
                  "value":"5555555555"
               },
               {
                  "value":"afdfca0e4daec99425e4b58ee41a2bb2",
                  "system":"urn:oid:google/reconciliation-id"
               }
            ],
            "resourceType":"PractitionerRole",
            "code":[
               {
                  "coding":[
                     {
                        "display":"Adult Medicine",
                        "system":"urn:oid:2.16.840.1.113883.6.101",
                        "code":"207QA0505X"
                     }
                  ]
               }
            ],
            "telecom":[
               {
                  "system":"phone",
                  "value":"tel:+1(555)555-1004"
               }
            ],
            "location":[
               {
                  "reference":"Location/e4e3608bb55480dc5181bce296f01420"
               }
            ],
            "practitioner":{
               "reference":"Practitioner/a2d1849aa3bcf23e779a5a256510717e"
            },
            "id":"55c837aa015a214540ee84e7b6c57de8"
         }
      },
      {
         "resource":{
            "deceasedBoolean":true,
            "patient":{
               "reference":"Patient/50852d7579eefa2e08d4c1d663b5e921"
            },
            "resourceType":"FamilyMemberHistory",
            "relationship":{
               "coding":[
                  {
                     "system":"urn:oid:2.16.840.1.113883.5.111",
                     "code":"FTH",
                     "display":"Father"
                  }
               ]
            },
            "sex":{
               "coding":[
                  {
                     "display":"Male",
                     "system":"urn:oid:2.16.840.1.113883.1.11.1",
                     "code":"M"
                  }
               ]
            },
            "id":"c8424a4346a74683fe155423cc785fdf",
            "bornDate":"1910-01-01",
            "condition":[
               {
                  "code":{
                     "coding":[
                        {
                           "system":"urn:oid:2.16.840.1.113883.6.96",
                           "code":"22298006",
                           "display":"Myocardial infarction"
                        }
                     ]
                  },
                  "onsetAge":{
                     "unit":"yr",
                     "system":"http://unitsofmeasure.org",
                     "value":57,
                     "code":"a"
                  },
                  "outcome":{
                     "coding":[
                        {
                           "display":"Dead",
                           "system":"urn:oid:2.16.840.1.113883.6.96",
                           "code":"419099009"
                        }
                     ]
                  },
                  "contributedToDeath":true
               },
               {
                  "contributedToDeath":false,
                  "code":{
                     "coding":[
                        {
                           "display":"Diabetes mellitus type 2",
                           "system":"urn:oid:2.16.840.1.113883.6.96",
                           "code":"44054006"
                        }
                     ]
                  },
                  "onsetAge":{
                     "unit":"yr",
                     "system":"http://unitsofmeasure.org",
                     "value":40,
                     "code":"a"
                  }
               }
            ],
            "status":"completed",
            "identifier":[
               {
                  "value":"c8424a4346a74683fe155423cc785fdf",
                  "system":"urn:oid:google/reconciliation-id"
               }
            ]
         }
      },
      {
         "resource":{
            "id":"afff0c9c6cd3c5b1fa01a1bddcf5479c",
            "resourceType":"PractitionerRole",
            "code":[
               {
                  "coding":[
                     {
                        "code":"207QA0505X",
                        "display":"Adult Medicine",
                        "system":"urn:oid:2.16.840.1.113883.6.101"
                     }
                  ]
               }
            ],
            "identifier":[
               {
                  "system":"urn:oid:2.16.840.1.113883.4.6",
                  "value":"555555555"
               },
               {
                  "value":"03646e1b981a8facc32afc834c4e1a25",
                  "system":"urn:oid:google/reconciliation-id"
               }
            ]
         }
      },
      {
         "resource":{
            "code":{
               "coding":[
                  {
                     "code":"8302-2",
                     "display":"Height",
                     "system":"urn:oid:2.16.840.1.113883.6.1"
                  }
               ]
            },
            "effectiveDateTime":"2012-09-10T00:00:00+09:00",
            "performer":[
               {
                  "reference":"PractitionerRole/afff0c9c6cd3c5b1fa01a1bddcf5479c"
               }
            ],
            "component":[
               {
                  "code":{
                     "coding":[
                        {
                           "display":"Height",
                           "system":"urn:oid:2.16.840.1.113883.6.1",
                           "code":"8302-2"
                        }
                     ]
                  },
                  "valueQuantity":{
                     "unit":"cm",
                     "value":177
                  }
               }
            ],
            "subject":{
               "reference":"Patient/50852d7579eefa2e08d4c1d663b5e921"
            },
            "identifier":[
               {
                  "system":"urn:oid:google/reconciliation-id",
                  "value":"deba823ffc5715cfb7de91142d1a0142"
               }
            ],
            "resourceType":"Observation",
            "interpretation":[
               {
                  "coding":[
                     {
                        "code":"N",
                        "system":"urn:oid:2.16.840.1.113883.5.83"
                     }
                  ]
               }
            ],
            "issued":"2008-09-10T11:45:00.109910Z",
            "status":"final",
            "id":"deba823ffc5715cfb7de91142d1a0142"
         }
      },
      {
         "resource":{
            "identifier":[
               {
                  "value":"d4bff4dcf358e41d9efca3a0088bd1cd",
                  "system":"urn:oid:google/reconciliation-id"
               }
            ],
            "resourceType":"Observation",
            "performer":[
               {
                  "reference":"PractitionerRole/afff0c9c6cd3c5b1fa01a1bddcf5479c"
               }
            ],
            "code":{
               "coding":[
                  {
                     "display":"Patient Body Weight - Measured",
                     "system":"urn:oid:2.16.840.1.113883.6.1",
                     "code":"3141-9"
                  }
               ]
            },
            "subject":{
               "reference":"Patient/50852d7579eefa2e08d4c1d663b5e921"
            },
            "status":"final",
            "id":"d4bff4dcf358e41d9efca3a0088bd1cd",
            "component":[
               {
                  "valueQuantity":{
                     "unit":"kg",
                     "value":86
                  },
                  "code":{
                     "coding":[
                        {
                           "display":"Patient Body Weight - Measured",
                           "system":"urn:oid:2.16.840.1.113883.6.1",
                           "code":"3141-9"
                        }
                     ]
                  }
               }
            ],
            "interpretation":[
               {
                  "coding":[
                     {
                        "system":"urn:oid:2.16.840.1.113883.5.83",
                        "code":"N"
                     }
                  ]
               }
            ],
            "issued":"2008-09-10T11:45:00.109910Z",
            "effectiveDateTime":"2012-09-10T00:00:00+09:00"
         }
      },
      {
         "resource":{
            "issued":"2008-09-10T11:45:00.109910Z",
            "effectiveDateTime":"2012-09-10T00:00:00+09:00",
            "code":{
               "coding":[
                  {
                     "system":"urn:oid:2.16.840.1.113883.6.1",
                     "code":"8480-6",
                     "display":"Intravascular Systolic"
                  }
               ]
            },
            "interpretation":[
               {
                  "coding":[
                     {
                        "system":"urn:oid:2.16.840.1.113883.5.83",
                        "code":"N"
                     }
                  ]
               }
            ],
            "subject":{
               "reference":"Patient/50852d7579eefa2e08d4c1d663b5e921"
            },
            "component":[
               {
                  "code":{
                     "coding":[
                        {
                           "code":"8480-6",
                           "display":"Intravascular Systolic",
                           "system":"urn:oid:2.16.840.1.113883.6.1"
                        }
                     ]
                  },
                  "valueQuantity":{
                     "value":132,
                     "unit":"mm[Hg]"
                  }
               }
            ],
            "resourceType":"Observation",
            "status":"final",
            "id":"779bbf895832983422f3c7f25f3fda4b",
            "identifier":[
               {
                  "system":"urn:oid:google/reconciliation-id",
                  "value":"779bbf895832983422f3c7f25f3fda4b"
               }
            ],
            "performer":[
               {
                  "reference":"PractitionerRole/afff0c9c6cd3c5b1fa01a1bddcf5479c"
               }
            ]
         }
      },
      {
         "resource":{
            "identifier":[
               {
                  "value":"72bd4db02d5ce88919acf99ec4b7a40f",
                  "system":"urn:oid:google/reconciliation-id"
               }
            ],
            "performer":[
               {
                  "reference":"PractitionerRole/afff0c9c6cd3c5b1fa01a1bddcf5479c"
               }
            ],
            "effectiveDateTime":"2012-09-10T00:00:00+09:00",
            "issued":"2008-09-01T09:15:00.1991Z",
            "resourceType":"Observation",
            "subject":{
               "reference":"Patient/50852d7579eefa2e08d4c1d663b5e921"
            },
            "status":"final",
            "id":"72bd4db02d5ce88919acf99ec4b7a40f",
            "code":{
               "coding":[
                  {
                     "code":"8462-4",
                     "display":"BP Diastolic",
                     "system":"urn:oid:2.16.840.1.113883.6.1"
                  }
               ]
            },
            "component":[
               {
                  "valueQuantity":{
                     "value":88,
                     "unit":"mm[Hg]"
                  },
                  "code":{
                     "coding":[
                        {
                           "display":"BP Diastolic",
                           "system":"urn:oid:2.16.840.1.113883.6.1",
                           "code":"8462-4"
                        }
                     ]
                  }
               }
            ],
            "interpretation":[
               {
                  "coding":[
                     {
                        "system":"urn:oid:2.16.840.1.113883.5.83",
                        "code":"N"
                     }
                  ]
               }
            ]
         }
      },
      {
         "resource":{
            "id":"5b9a3ecbd2c3093c49f45b9654b29bbd",
            "interpretation":[
               {
                  "coding":[
                     {
                        "code":"N",
                        "system":"urn:oid:2.16.840.1.113883.5.83"
                     }
                  ]
               }
            ],
            "performer":[
               {
                  "reference":"PractitionerRole/afff0c9c6cd3c5b1fa01a1bddcf5479c"
               }
            ],
            "identifier":[
               {
                  "system":"urn:oid:google/reconciliation-id",
                  "value":"5b9a3ecbd2c3093c49f45b9654b29bbd"
               }
            ],
            "status":"final",
            "code":{
               "coding":[
                  {
                     "code":"8302-2",
                     "display":"Height",
                     "system":"urn:oid:2.16.840.1.113883.6.1"
                  }
               ]
            },
            "issued":"2008-09-01T09:15:00.1991Z",
            "resourceType":"Observation",
            "component":[
               {
                  "valueQuantity":{
                     "unit":"cm",
                     "value":177
                  },
                  "code":{
                     "coding":[
                        {
                           "code":"8302-2",
                           "display":"Height",
                           "system":"urn:oid:2.16.840.1.113883.6.1"
                        }
                     ]
                  }
               }
            ],
            "subject":{
               "reference":"Patient/50852d7579eefa2e08d4c1d663b5e921"
            },
            "effectiveDateTime":"2011-09-01T00:00:00+09:00"
         }
      },
      {
         "resource":{
            "interpretation":[
               {
                  "coding":[
                     {
                        "system":"urn:oid:2.16.840.1.113883.5.83",
                        "code":"N"
                     }
                  ]
               }
            ],
            "performer":[
               {
                  "reference":"PractitionerRole/afff0c9c6cd3c5b1fa01a1bddcf5479c"
               }
            ],
            "code":{
               "coding":[
                  {
                     "display":"Patient Body Weight - Measured",
                     "system":"urn:oid:2.16.840.1.113883.6.1",
                     "code":"3141-9"
                  }
               ]
            },
            "status":"final",
            "component":[
               {
                  "code":{
                     "coding":[
                        {
                           "system":"urn:oid:2.16.840.1.113883.6.1",
                           "code":"3141-9",
                           "display":"Patient Body Weight - Measured"
                        }
                     ]
                  },
                  "valueQuantity":{
                     "unit":"kg",
                     "value":88
                  }
               }
            ],
            "identifier":[
               {
                  "system":"urn:oid:google/reconciliation-id",
                  "value":"4ae4d8413d11a07ca4705738f26e7413"
               }
            ],
            "id":"4ae4d8413d11a07ca4705738f26e7413",
            "subject":{
               "reference":"Patient/50852d7579eefa2e08d4c1d663b5e921"
            },
            "resourceType":"Observation",
            "effectiveDateTime":"2011-09-01T00:00:00+09:00",
            "issued":"2008-09-01T09:15:00.1991Z"
         }
      },
      {
         "resource":{
            "effectiveDateTime":"2011-09-01T00:00:00+09:00",
            "status":"final",
            "resourceType":"Observation",
            "code":{
               "coding":[
                  {
                     "system":"urn:oid:2.16.840.1.113883.6.1",
                     "code":"8480-6",
                     "display":"BP Systolic"
                  }
               ]
            },
            "issued":"2008-09-01T09:15:00.1991Z",
            "id":"252e36a12b7875be228e50986ad5b340",
            "component":[
               {
                  "code":{
                     "coding":[
                        {
                           "display":"BP Systolic",
                           "system":"urn:oid:2.16.840.1.113883.6.1",
                           "code":"8480-6"
                        }
                     ]
                  },
                  "valueQuantity":{
                     "unit":"mm[Hg]",
                     "value":128
                  }
               }
            ],
            "performer":[
               {
                  "reference":"PractitionerRole/afff0c9c6cd3c5b1fa01a1bddcf5479c"
               }
            ],
            "interpretation":[
               {
                  "coding":[
                     {
                        "system":"urn:oid:2.16.840.1.113883.5.83",
                        "code":"N"
                     }
                  ]
               }
            ],
            "subject":{
               "reference":"Patient/50852d7579eefa2e08d4c1d663b5e921"
            },
            "identifier":[
               {
                  "value":"252e36a12b7875be228e50986ad5b340",
                  "system":"urn:oid:google/reconciliation-id"
               }
            ]
         }
      },
      {
         "resource":{
            "subject":{
               "reference":"Patient/50852d7579eefa2e08d4c1d663b5e921"
            },
            "interpretation":[
               {
                  "coding":[
                     {
                        "code":"N",
                        "system":"urn:oid:2.16.840.1.113883.5.83"
                     }
                  ]
               }
            ],
            "effectiveDateTime":"2011-09-01T00:00:00+09:00",
            "performer":[
               {
                  "reference":"PractitionerRole/afff0c9c6cd3c5b1fa01a1bddcf5479c"
               }
            ],
            "code":{
               "coding":[
                  {
                     "display":"BP Diastolic",
                     "system":"urn:oid:2.16.840.1.113883.6.1",
                     "code":"8462-4"
                  }
               ]
            },
            "identifier":[
               {
                  "value":"eff8f5f872c2867b872b2c29d68ef394",
                  "system":"urn:oid:google/reconciliation-id"
               }
            ],
            "resourceType":"Observation",
            "id":"eff8f5f872c2867b872b2c29d68ef394",
            "component":[
               {
                  "code":{
                     "coding":[
                        {
                           "display":"BP Diastolic",
                           "system":"urn:oid:2.16.840.1.113883.6.1",
                           "code":"8462-4"
                        }
                     ]
                  },
                  "valueQuantity":{
                     "value":80,
                     "unit":"mm[Hg]"
                  }
               }
            ],
            "issued":"2008-09-01T09:15:00.1991Z",
            "status":"final"
         }
      },
      {
         "resource":{
            "status":"final",
            "component":[
               {
                  "code":{
                     "coding":[
                        {
                           "code":"72166-2",
                           "display":"Tobacco smoking status NHIS",
                           "system":"urn:oid:2.16.840.1.113883.6.1"
                        }
                     ]
                  },
                  "valueCodeableConcept":{
                     "coding":[
                        {
                           "display":"Former smoker",
                           "system":"urn:oid:2.16.840.1.113883.6.96",
                           "code":"8517006"
                        }
                     ]
                  }
               }
            ],
            "effectiveDateTime":"2012-09-10T00:00:00+09:00",
            "performer":[
               {
                  "reference":"PractitionerRole/afff0c9c6cd3c5b1fa01a1bddcf5479c"
               }
            ],
            "id":"95c2991dad87855e95ece6eb0e4b9783",
            "identifier":[
               {
                  "system":"urn:oid:2.16.840.1.113883.19",
                  "value":"123456789"
               },
               {
                  "value":"3fa07c185627219ee3d6d3d04bb65cd1",
                  "system":"urn:oid:google/reconciliation-id"
               }
            ],
            "subject":{
               "reference":"Patient/50852d7579eefa2e08d4c1d663b5e921"
            },
            "issued":"2008-09-10T11:45:00.109910Z",
            "code":{
               "coding":[
                  {
                     "code":"72166-2",
                     "display":"Tobacco smoking status NHIS",
                     "system":"urn:oid:2.16.840.1.113883.6.1"
                  }
               ]
            },
            "resourceType":"Observation"
         }
      },
      {
         "resource":{
            "code":{
               "coding":[
                  {
                     "code":"11367-0",
                     "display":"History of tobacco use",
                     "system":"urn:oid:2.16.840.1.113883.6.1"
                  }
               ]
            },
            "performer":[
               {
                  "reference":"PractitionerRole/afff0c9c6cd3c5b1fa01a1bddcf5479c"
               }
            ],
            "effectivePeriod":{
               "end":"2011-02-15T00:00:00+02:00",
               "start":"2009-02-14T00:00:00+02:00"
            },
            "resourceType":"Observation",
            "id":"03836f89baa1fe98a4f8aa99ec1556a1",
            "issued":"2008-09-10T11:45:00.109910Z",
            "component":[
               {
                  "valueCodeableConcept":{
                     "coding":[
                        {
                           "code":"160604004",
                           "display":"Moderate cigarette smoker, 10-19/day",
                           "system":"urn:oid:2.16.840.1.113883.6.96"
                        }
                     ]
                  },
                  "code":{
                     "coding":[
                        {
                           "code":"11367-0",
                           "display":"History of tobacco use",
                           "system":"urn:oid:2.16.840.1.113883.6.1"
                        }
                     ]
                  }
               }
            ],
            "identifier":[
               {
                  "value":"03836f89baa1fe98a4f8aa99ec1556a1",
                  "system":"urn:oid:google/reconciliation-id"
               }
            ],
            "subject":{
               "reference":"Patient/50852d7579eefa2e08d4c1d663b5e921"
            },
            "status":"final"
         }
      },
      {
         "resource":{
            "identifier":[
               {
                  "value":"ffa92531bf7627adff2dcda6eaec046d",
                  "system":"urn:oid:google/reconciliation-id"
               }
            ],
            "effectivePeriod":{
               "start":"2012-02-15T00:00:00+02:00"
            },
            "component":[
               {
                  "code":{
                     "coding":[
                        {
                           "code":"74013-4",
                           "display":"Alcoholic drinks per day",
                           "system":"urn:oid:2.16.840.1.113883.6.1"
                        }
                     ]
                  },
                  "valueQuantity":{
                     "value":12
                  }
               }
            ],
            "subject":{
               "reference":"Patient/50852d7579eefa2e08d4c1d663b5e921"
            },
            "code":{
               "coding":[
                  {
                     "display":"Alcoholic drinks per day",
                     "system":"urn:oid:2.16.840.1.113883.6.1",
                     "code":"74013-4"
                  }
               ]
            },
            "status":"final",
            "resourceType":"Observation",
            "performer":[
               {
                  "reference":"PractitionerRole/afff0c9c6cd3c5b1fa01a1bddcf5479c"
               }
            ],
            "issued":"2008-09-10T11:45:00.109910Z",
            "id":"ffa92531bf7627adff2dcda6eaec046d"
         }
      },
      {
         "resource":{
            "identifier":[
               {
                  "system":"urn:oid:2.16.840.1.113883.4.6",
                  "value":"333444555"
               },
               {
                  "value":"31b73928b01a8fa1d136add88c945b9e",
                  "system":"urn:oid:google/reconciliation-id"
               }
            ],
            "resourceType":"PractitionerRole",
            "code":[
               {
                  "coding":[
                     {
                        "system":"urn:oid:2.16.840.1.113883.6.96",
                        "code":"59058001",
                        "display":"General Physician"
                     }
                  ]
               }
            ],
            "id":"b5ff31101ca7ee20724b9764eebcf529"
         }
      },
      {
         "resource":{
            "resourceType":"Location",
            "type":[
               {
                  "coding":[
                     {
                        "display":"Urgent Care Center",
                        "system":"urn:oid:2.16.840.1.113883.6.259",
                        "code":"1160-1"
                     }
                  ]
               }
            ],
            "name":"Good Health Urgent Care",
            "telecom":[
               {
                  "value":"tel: +1(555)555-1030",
                  "system":"phone"
               }
            ],
            "identifier":[
               {
                  "value":"58cd28428d21ac715afad3ece3573fd9",
                  "system":"urn:oid:google/reconciliation-id"
               }
            ],
            "id":"58cd28428d21ac715afad3ece3573fd9",
            "address":{
               "postalCode":"99123",
               "country":"US",
               "line":[
                  "1007 Health Drive"
               ],
               "city":"Portland",
               "state":"OR"
            }
         }
      },
      {
         "resource":{
            "id":"a2c0e8a0e824ab057f5aa2e90a6c3ace",
            "subject":{
               "reference":"Patient/50852d7579eefa2e08d4c1d663b5e921"
            },
            "location":[
               {
                  "location":{
                     "reference":"Location/58cd28428d21ac715afad3ece3573fd9"
                  }
               }
            ],
            "status":"unknown",
            "type":[
               {
                  "coding":[
                     {
                        "display":"Office outpatient visit 15 minutes",
                        "system":"urn:oid:2.16.840.1.113883.6.12",
                        "code":"99213"
                     }
                  ]
               }
            ],
            "identifier":[
               {
                  "value":"a2c0e8a0e824ab057f5aa2e90a6c3ace",
                  "system":"urn:oid:google/reconciliation-id"
               }
            ],
            "resourceType":"Encounter",
            "class":{
               "system":"urn:oid:2.16.840.1.113883.6.12",
               "code":"99213",
               "display":"Office outpatient visit 15 minutes"
            },
            "participant":[
               {
                  "individual":{
                     "reference":"PractitionerRole/b5ff31101ca7ee20724b9764eebcf529"
                  }
               }
            ]
         }
      },
      {
         "resource":{
            "resourceType":"Device",
            "type":{
               "coding":[
                  {
                     "code":"87405001",
                     "display":"cane, device (physical object)",
                     "system":"urn:oid:2.16.840.1.113883.6.96"
                  }
               ]
            },
            "id":"00a286095aa136a27c51b25424719762",
            "identifier":[
               {
                  "value":"00a286095aa136a27c51b25424719762",
                  "system":"urn:oid:google/reconciliation-id"
               }
            ]
         }
      },
      {
         "resource":{
            "status":"final",
            "code":{
               "coding":[
                  {
                     "system":"urn:oid:2.16.840.1.113883.6.1",
                     "code":"54522-8",
                     "display":"Functional status"
                  }
               ]
            },
            "component":[
               {
                  "valueCodeableConcept":{
                     "coding":[
                        {
                           "code":"165245003",
                           "display":"Independent walking",
                           "system":"urn:oid:2.16.840.1.113883.6.96"
                        }
                     ]
                  },
                  "code":{
                     "coding":[
                        {
                           "code":"54522-8",
                           "display":"Functional status",
                           "system":"urn:oid:2.16.840.1.113883.6.1"
                        }
                     ]
                  }
               }
            ],
            "device":{
               "reference":"Device/00a286095aa136a27c51b25424719762"
            },
            "effectiveDateTime":"2013-03-11T00:00:00+03:00",
            "subject":{
               "reference":"Patient/50852d7579eefa2e08d4c1d663b5e921"
            },
            "performer":[
               {
                  "reference":"PractitionerRole/afff0c9c6cd3c5b1fa01a1bddcf5479c"
               }
            ],
            "issued":"2008-07-06T11:45:00.6776Z",
            "identifier":[
               {
                  "system":"urn:oid:google/reconciliation-id",
                  "value":"987be6b25f066df3ebc8760b20c1e896"
               }
            ],
            "id":"987be6b25f066df3ebc8760b20c1e896",
            "resourceType":"Observation"
         }
      },
      {
         "resource":{
            "identifier":[
               {
                  "system":"urn:oid:google/reconciliation-id",
                  "value":"dff3005f43dd6b33a7ec6ba484ba0f99"
               }
            ],
            "issued":"2008-07-06T11:48:00.6776Z",
            "status":"final",
            "id":"dff3005f43dd6b33a7ec6ba484ba0f99",
            "subject":{
               "reference":"Patient/50852d7579eefa2e08d4c1d663b5e921"
            },
            "effectiveDateTime":"2003-03-11T00:00:00+03:00",
            "component":[
               {
                  "valueCodeableConcept":{
                     "coding":[
                        {
                           "code":"371153006",
                           "display":"Independent",
                           "system":"urn:oid:2.16.840.1.113883.6.96"
                        }
                     ]
                  },
                  "code":{
                     "coding":[
                        {
                           "code":"46008-9",
                           "display":"Bathing",
                           "system":"urn:oid:2.16.840.1.113883.6.1"
                        }
                     ]
                  }
               }
            ],
            "resourceType":"Observation",
            "code":{
               "coding":[
                  {
                     "system":"urn:oid:2.16.840.1.113883.6.1",
                     "code":"46008-9",
                     "display":"Bathing"
                  }
               ]
            },
            "performer":[
               {
                  "reference":"PractitionerRole/afff0c9c6cd3c5b1fa01a1bddcf5479c"
               }
            ]
         }
      },
      {
         "resource":{
            "identifier":[
               {
                  "system":"urn:oid:2.16.840.1.113883.4.6",
                  "value":"222334444"
               },
               {
                  "value":"804f6fcdb11a8f9c833049be8da44468",
                  "system":"urn:oid:google/reconciliation-id"
               }
            ],
            "resourceType":"PractitionerRole",
            "id":"9cabf432ce5fa2a91363c7f9da490d15",
            "code":[
               {
                  "coding":[
                     {
                        "code":"207QA0505X",
                        "display":"Adult Medicine",
                        "system":"urn:oid:2.16.840.1.113883.6.101"
                     }
                  ]
               }
            ]
         }
      },
      {
         "resource":{
            "code":{
               "coding":[
                  {
                     "system":"urn:oid:2.16.840.1.113883.6.96",
                     "code":"233604007",
                     "display":"Pneumonia"
                  }
               ]
            },
            "onsetDateTime":"2013-07-03T00:00:00+07:00",
            "id":"56722a50775e1d38c248c7f49b3cd723",
            "resourceType":"Condition",
            "subject":{
               "reference":"Patient/50852d7579eefa2e08d4c1d663b5e921"
            },
            "category":[
               {
                  "coding":[
                     {
                        "system":"urn:oid:2.16.840.1.113883.6.1",
                        "code":"75323-6",
                        "display":"Condition"
                     }
                  ]
               }
            ],
            "recordedDate":"2008-08-14T10:30:00+08:00",
            "asserter":{
               "reference":"PractitionerRole/afff0c9c6cd3c5b1fa01a1bddcf5479c"
            },
            "clinicalStatus":{
               "coding":[
                  {
                     "system":"http://terminology.hl7.org/CodeSystem/condition-clinical",
                     "code":"active"
                  }
               ]
            },
            "identifier":[
               {
                  "value":"56722a50775e1d38c248c7f49b3cd723",
                  "system":"urn:oid:google/reconciliation-id"
               }
            ]
         }
      },
      {
         "resource":{
            "identifier":[
               {
                  "value":"35d36e9dde1aa0fe5619e2eb40ad3cfc",
                  "system":"urn:oid:google/reconciliation-id"
               }
            ],
            "clinicalStatus":{
               "coding":[
                  {
                     "system":"http://terminology.hl7.org/CodeSystem/condition-clinical",
                     "code":"active"
                  }
               ]
            },
            "subject":{
               "reference":"Patient/50852d7579eefa2e08d4c1d663b5e921"
            },
            "id":"35d36e9dde1aa0fe5619e2eb40ad3cfc",
            "onsetDateTime":"2007-04-14T00:00:00+04:00",
            "recordedDate":"2008-04-14T15:15:00+04:00",
            "asserter":{
               "reference":"PractitionerRole/afff0c9c6cd3c5b1fa01a1bddcf5479c"
            },
            "category":[
               {
                  "coding":[
                     {
                        "code":"75323-6",
                        "display":"Condition",
                        "system":"urn:oid:2.16.840.1.113883.6.1"
                     }
                  ]
               }
            ],
            "resourceType":"Condition",
            "code":{
               "coding":[
                  {
                     "code":"29857009",
                     "display":"Chest pain",
                     "system":"urn:oid:2.16.840.1.113883.6.96"
                  }
               ]
            }
         }
      },
      {
         "resource":{
            "code":{
               "coding":[
                  {
                     "code":"194828000",
                     "display":"Angina",
                     "system":"urn:oid:2.16.840.1.113883.6.96"
                  }
               ]
            },
            "identifier":[
               {
                  "value":"1ac184bd233ee86dcd7f20b8f597da9d",
                  "system":"urn:oid:google/reconciliation-id"
               }
            ],
            "category":[
               {
                  "coding":[
                     {
                        "display":"Condition",
                        "system":"urn:oid:2.16.840.1.113883.6.1",
                        "code":"75323-6"
                     }
                  ]
               }
            ],
            "onsetDateTime":"2007-04-17T00:00:00+04:00",
            "resourceType":"Condition",
            "asserter":{
               "reference":"PractitionerRole/9cabf432ce5fa2a91363c7f9da490d15"
            },
            "clinicalStatus":{
               "coding":[
                  {
                     "system":"http://terminology.hl7.org/CodeSystem/condition-clinical",
                     "code":"active"
                  }
               ]
            },
            "recordedDate":"2008-04-17T15:15:00+04:00",
            "subject":{
               "reference":"Patient/50852d7579eefa2e08d4c1d663b5e921"
            },
            "id":"1ac184bd233ee86dcd7f20b8f597da9d"
         }
      },
      {
         "resource":{
            "onsetDateTime":"1998-03-10T00:00:00+03:00",
            "subject":{
               "reference":"Patient/50852d7579eefa2e08d4c1d663b5e921"
            },
            "asserter":{
               "reference":"PractitionerRole/afff0c9c6cd3c5b1fa01a1bddcf5479c"
            },
            "identifier":[
               {
                  "system":"urn:oid:google/reconciliation-id",
                  "value":"25a4da29896b9cd190b3baf028923b94"
               }
            ],
            "code":{
               "coding":[
                  {
                     "system":"urn:oid:2.16.840.1.113883.6.96",
                     "code":"233604007",
                     "display":"Pneumonia"
                  }
               ]
            },
            "clinicalStatus":{
               "coding":[
                  {
                     "code":"active",
                     "system":"http://terminology.hl7.org/CodeSystem/condition-clinical"
                  }
               ]
            },
            "recordedDate":"2008-03-16T10:30:00+03:00",
            "category":[
               {
                  "coding":[
                     {
                        "system":"urn:oid:2.16.840.1.113883.6.1",
                        "code":"75323-6",
                        "display":"Condition"
                     }
                  ]
               }
            ],
            "id":"25a4da29896b9cd190b3baf028923b94",
            "resourceType":"Condition"
         }
      },
      {
         "resource":{
            "address":{
               "city":"Portland",
               "state":"OR",
               "postalCode":"99123",
               "country":"US",
               "line":[
                  "1001 Village Avenue"
               ]
            },
            "resourceType":"Location",
            "id":"5532c3e245654abde1033d1ca44289dc",
            "identifier":[
               {
                  "system":"urn:oid:google/reconciliation-id",
                  "value":"5532c3e245654abde1033d1ca44289dc"
               }
            ]
         }
      },
      {
         "resource":{
            "identifier":[
               {
                  "value":"98db750b2f6b9212a6b531ea18efdf21",
                  "system":"urn:oid:google/reconciliation-id"
               }
            ],
            "address":[
               {
                  "state":"OR",
                  "postalCode":"99123",
                  "country":"US",
                  "line":[
                     "1001 Village Avenue"
                  ],
                  "city":"Portland"
               }
            ],
            "resourceType":"Organization",
            "id":"98db750b2f6b9212a6b531ea18efdf21",
            "name":"Community Health and Hospitals",
            "telecom":[
               {
                  "value":"+1(555)555-5000",
                  "system":"phone"
               }
            ]
         }
      },
      {
         "resource":{
            "telecom":[
               {
                  "value":"+1(555)555-5000",
                  "system":"phone"
               }
            ],
            "id":"c4bdf59ec9c794634880da95c8cfb1a4",
            "location":[
               {
                  "reference":"Location/5532c3e245654abde1033d1ca44289dc"
               }
            ],
            "organization":{
               "reference":"Organization/98db750b2f6b9212a6b531ea18efdf21"
            },
            "identifier":[
               {
                  "value":"2981823",
                  "system":"urn:oid:2.16.840.1.113883.19.5.9999.456"
               },
               {
                  "value":"41672c00691fa963e00f9a3b4ff39f9d",
                  "system":"urn:oid:google/reconciliation-id"
               }
            ],
            "resourceType":"PractitionerRole"
         }
      },
      {
         "resource":{
            "code":{
               "coding":[
                  {
                     "display":"Colonoscopy",
                     "system":"urn:oid:2.16.840.1.113883.6.96",
                     "code":"73761001"
                  }
               ]
            },
            "performedDateTime":"2012-05-12T00:00:00+05:00",
            "performer":[
               {
                  "actor":{
                     "reference":"PractitionerRole/c4bdf59ec9c794634880da95c8cfb1a4"
                  }
               }
            ],
            "bodySite":[
               {
                  "coding":[
                     {
                        "system":"urn:oid:2.16.840.1.113883.3.88.12.3221.8.9",
                        "code":"appropriate_code",
                        "display":"colon"
                     }
                  ]
               }
            ],
            "status":"completed",
            "subject":{
               "reference":"Patient/50852d7579eefa2e08d4c1d663b5e921"
            },
            "id":"7f676442d5683711614ceda79b3efa93",
            "resourceType":"Procedure",
            "identifier":[
               {
                  "system":"urn:oid:google/reconciliation-id",
                  "value":"7f676442d5683711614ceda79b3efa93"
               }
            ]
         }
      },
      {
         "resource":{
            "id":"9bc5aeefdd56fd93a591b446aae81c53",
            "code":[
               {
                  "coding":[
                     {
                        "system":"urn:oid:2.16.840.1.113883.6.101",
                        "code":"246Q00000X",
                        "display":"Technician, Pathology"
                     }
                  ]
               }
            ],
            "identifier":[
               {
                  "system":"urn:oid:2.16.840.1.113883.4.6",
                  "value":"333444444"
               },
               {
                  "system":"urn:oid:google/reconciliation-id",
                  "value":"31b7392b451a8fa1d136add88c96055d"
               }
            ],
            "resourceType":"PractitionerRole"
         }
      },
      {
         "resource":{
            "interpretation":[
               {
                  "coding":[
                     {
                        "code":"N",
                        "system":"urn:oid:2.16.840.1.113883.5.83"
                     }
                  ]
               }
            ],
            "component":[
               {
                  "valueQuantity":{
                     "unit":"g/dL",
                     "value":13.2
                  },
                  "code":{
                     "coding":[
                        {
                           "display":"Hemoglobin",
                           "system":"urn:oid:2.16.840.1.113883.6.1",
                           "code":"718-7"
                        }
                     ]
                  }
               }
            ],
            "performer":[
               {
                  "reference":"PractitionerRole/9bc5aeefdd56fd93a591b446aae81c53"
               }
            ],
            "code":{
               "coding":[
                  {
                     "code":"718-7",
                     "display":"Hemoglobin",
                     "system":"urn:oid:2.16.840.1.113883.6.1"
                  }
               ]
            },
            "referenceRange":[
               {
                  "low":{
                     "unit":"g/dL",
                     "value":12
                  },
                  "high":{
                     "unit":"g/dL",
                     "value":15.5
                  }
               }
            ],
            "resourceType":"Observation",
            "status":"final",
            "issued":"2008-03-19T08:30:00.193319Z",
            "identifier":[
               {
                  "value":"537f3bf262ec9a2194880e79372eb82a",
                  "system":"urn:oid:google/reconciliation-id"
               }
            ],
            "id":"537f3bf262ec9a2194880e79372eb82a",
            "effectiveDateTime":"2008-03-19T08:30:00+03:00",
            "subject":{
               "reference":"Patient/50852d7579eefa2e08d4c1d663b5e921"
            }
         }
      },
      {
         "resource":{
            "effectiveDateTime":"2008-03-19T08:30:00+03:00",
            "interpretation":[
               {
                  "coding":[
                     {
                        "code":"N",
                        "system":"urn:oid:2.16.840.1.113883.5.83"
                     }
                  ]
               }
            ],
            "issued":"2008-03-19T08:30:00.193319Z",
            "code":{
               "coding":[
                  {
                     "display":"Leukocytes",
                     "system":"urn:oid:2.16.840.1.113883.6.1",
                     "code":"6690-2"
                  }
               ]
            },
            "subject":{
               "reference":"Patient/50852d7579eefa2e08d4c1d663b5e921"
            },
            "performer":[
               {
                  "reference":"PractitionerRole/9bc5aeefdd56fd93a591b446aae81c53"
               }
            ],
            "component":[
               {
                  "valueQuantity":{
                     "unit":"10*9/L",
                     "value":6.7
                  },
                  "code":{
                     "coding":[
                        {
                           "system":"urn:oid:2.16.840.1.113883.6.1",
                           "code":"6690-2",
                           "display":"Leukocytes"
                        }
                     ]
                  }
               }
            ],
            "resourceType":"Observation",
            "id":"222e3fc67d5ab0a18169224398097130",
            "identifier":[
               {
                  "value":"222e3fc67d5ab0a18169224398097130",
                  "system":"urn:oid:google/reconciliation-id"
               }
            ],
            "referenceRange":[
               {
                  "low":{
                     "value":4.3,
                     "unit":"10*9/L"
                  },
                  "high":{
                     "value":10.8,
                     "unit":"10*9/L"
                  }
               }
            ],
            "status":"final"
         }
      },
      {
         "resource":{
            "component":[
               {
                  "valueQuantity":{
                     "value":123,
                     "unit":"10*9/L"
                  },
                  "code":{
                     "coding":[
                        {
                           "code":"777-3",
                           "display":"Platelets",
                           "system":"urn:oid:2.16.840.1.113883.6.1"
                        }
                     ]
                  }
               }
            ],
            "effectiveDateTime":"2008-03-19T08:30:00+03:00",
            "status":"final",
            "identifier":[
               {
                  "system":"urn:oid:google/reconciliation-id",
                  "value":"a8c45ae1d41a0180c533067ee3bbd237"
               }
            ],
            "id":"a8c45ae1d41a0180c533067ee3bbd237",
            "subject":{
               "reference":"Patient/50852d7579eefa2e08d4c1d663b5e921"
            },
            "code":{
               "coding":[
                  {
                     "code":"777-3",
                     "display":"Platelets",
                     "system":"urn:oid:2.16.840.1.113883.6.1"
                  }
               ]
            },
            "interpretation":[
               {
                  "coding":[
                     {
                        "code":"LX",
                        "system":"urn:oid:2.16.840.1.113883.5.83"
                     }
                  ]
               }
            ],
            "performer":[
               {
                  "reference":"PractitionerRole/9bc5aeefdd56fd93a591b446aae81c53"
               }
            ],
            "referenceRange":[
               {
                  "low":{
                     "unit":"10*9/L",
                     "value":150
                  },
                  "high":{
                     "unit":"10*9/L",
                     "value":350
                  }
               }
            ],
            "issued":"2008-03-19T08:30:00.193319Z",
            "resourceType":"Observation"
         }
      },
      {
         "resource":{
            "identifier":[
               {
                  "system":"urn:oid:google/reconciliation-id",
                  "value":"f79c89da4ce7561a6e9b2953c537c1e8"
               }
            ],
            "referenceRange":[
               {
                  "low":{
                     "unit":"%",
                     "value":34.9
                  },
                  "high":{
                     "unit":"%",
                     "value":44.5
                  }
               }
            ],
            "code":{
               "coding":[
                  {
                     "display":"Hematocrit",
                     "system":"urn:oid:2.16.840.1.113883.6.1",
                     "code":"4544-3"
                  }
               ]
            },
            "id":"f79c89da4ce7561a6e9b2953c537c1e8",
            "interpretation":[
               {
                  "coding":[
                     {
                        "system":"urn:oid:2.16.840.1.113883.5.83",
                        "code":"LX"
                     }
                  ]
               }
            ],
            "resourceType":"Observation",
            "performer":[
               {
                  "reference":"PractitionerRole/9bc5aeefdd56fd93a591b446aae81c53"
               }
            ],
            "component":[
               {
                  "valueQuantity":{
                     "value":35.3,
                     "unit":"%"
                  },
                  "code":{
                     "coding":[
                        {
                           "code":"4544-3",
                           "display":"Hematocrit",
                           "system":"urn:oid:2.16.840.1.113883.6.1"
                        }
                     ]
                  }
               }
            ],
            "subject":{
               "reference":"Patient/50852d7579eefa2e08d4c1d663b5e921"
            },
            "issued":"2008-03-19T08:30:00.193319Z",
            "status":"final",
            "effectiveDateTime":"2008-03-19T08:30:00+03:00"
         }
      },
      {
         "resource":{
            "effectiveDateTime":"2008-03-19T08:30:00+03:00",
            "id":"ddc557a54a956c174bea2ac15f76eeab",
            "interpretation":[
               {
                  "coding":[
                     {
                        "code":"N",
                        "system":"urn:oid:2.16.840.1.113883.5.83"
                     }
                  ]
               }
            ],
            "referenceRange":[
               {
                  "high":{
                     "unit":"10*12/L",
                     "value":5.03
                  },
                  "low":{
                     "unit":"10*12/L",
                     "value":3.9
                  }
               }
            ],
            "status":"final",
            "code":{
               "coding":[
                  {
                     "code":"789-8",
                     "display":"Erythrocytes",
                     "system":"urn:oid:2.16.840.1.113883.6.1"
                  }
               ]
            },
            "identifier":[
               {
                  "value":"ddc557a54a956c174bea2ac15f76eeab",
                  "system":"urn:oid:google/reconciliation-id"
               }
            ],
            "resourceType":"Observation",
            "component":[
               {
                  "valueQuantity":{
                     "value":4.21,
                     "unit":"10*12/L"
                  },
                  "code":{
                     "coding":[
                        {
                           "display":"Erythrocytes",
                           "system":"urn:oid:2.16.840.1.113883.6.1",
                           "code":"789-8"
                        }
                     ]
                  }
               }
            ],
            "issued":"2008-03-19T08:30:00.193319Z",
            "subject":{
               "reference":"Patient/50852d7579eefa2e08d4c1d663b5e921"
            },
            "performer":[
               {
                  "reference":"PractitionerRole/9bc5aeefdd56fd93a591b446aae81c53"
               }
            ]
         }
      },
      {
         "resource":{
            "status":"unknown",
            "effectiveDateTime":"2008-03-20T09:30:00+03:00",
            "identifier":[
               {
                  "value":"92ba6e299e87d53e7cd4ea141e39cbcd",
                  "system":"urn:oid:google/reconciliation-id"
               }
            ],
            "id":"92ba6e299e87d53e7cd4ea141e39cbcd",
            "component":[
               {
                  "code":{
                     "coding":[
                        {
                           "display":"Urea nitrogen, Serum",
                           "system":"urn:oid:2.16.840.1.113883.6.1",
                           "code":"3094-0"
                        }
                     ]
                  }
               }
            ],
            "subject":{
               "reference":"Patient/50852d7579eefa2e08d4c1d663b5e921"
            },
            "resourceType":"Observation",
            "code":{
               "coding":[
                  {
                     "code":"3094-0",
                     "display":"Urea nitrogen, Serum",
                     "system":"urn:oid:2.16.840.1.113883.6.1"
                  }
               ]
            }
         }
      },
      {
         "resource":{
            "code":{
               "coding":[
                  {
                     "system":"urn:oid:2.16.840.1.113883.6.1",
                     "code":"57021-8",
                     "display":"CBC W Auto Differential panel in Blood"
                  }
               ]
            },
            "effectivePeriod":{
               "end":"2008-03-19T08:30:00+03:00",
               "start":"2008-03-19T08:30:00+03:00"
            },
            "result":[
               {
                  "reference":"Observation/537f3bf262ec9a2194880e79372eb82a"
               },
               {
                  "reference":"Observation/222e3fc67d5ab0a18169224398097130"
               },
               {
                  "reference":"Observation/a8c45ae1d41a0180c533067ee3bbd237"
               },
               {
                  "reference":"Observation/f79c89da4ce7561a6e9b2953c537c1e8"
               },
               {
                  "reference":"Observation/ddc557a54a956c174bea2ac15f76eeab"
               }
            ],
            "id":"05d1fc7bfda947279022ade0247e77af",
            "identifier":[
               {
                  "value":"05d1fc7bfda947279022ade0247e77af",
                  "system":"urn:oid:google/reconciliation-id"
               }
            ],
            "issued":"2008-03-19T08:30:00.193319Z",
            "resourceType":"DiagnosticReport",
            "status":"final"
         }
      },
      {
         "resource":{
            "code":{
               "coding":[
                  {
                     "display":"Blood chemistry test",
                     "system":"urn:oid:2.16.840.1.113883.6.96",
                     "code":"166312007"
                  }
               ]
            },
            "effectivePeriod":{
               "start":"2008-03-20T09:30:00+03:00",
               "end":"2008-03-20T09:30:00+03:00"
            },
            "result":[
               {
                  "reference":"Observation/92ba6e299e87d53e7cd4ea141e39cbcd"
               }
            ],
            "id":"a1cf0fc41341bedb8965b51617f20357",
            "identifier":[
               {
                  "system":"urn:oid:google/reconciliation-id",
                  "value":"a1cf0fc41341bedb8965b51617f20357"
               }
            ],
            "resourceType":"DiagnosticReport",
            "status":"partial"
         }
      },
      {
         "resource":{
            "id":"41400445ca98befe9e212581676a87f7",
            "identifier":[
               {
                  "value":"41400445ca98befe9e212581676a87f7",
                  "system":"urn:oid:google/reconciliation-id"
               }
            ],
            "address":{
               "line":[
                  "1004 Health Care Drive"
               ],
               "city":"Ann Arbor",
               "state":"MI",
               "postalCode":"02368",
               "country":"US"
            },
            "resourceType":"Location"
         }
      },
      {
         "resource":{
            "resourceType":"Organization",
            "name":"Community Health and Hospitals",
            "id":"308942e9b87aac7272f1a44a861ad606",
            "telecom":[
               {
                  "value":"tel:+1(555)-555-5005",
                  "system":"phone"
               }
            ],
            "identifier":[
               {
                  "value":"308942e9b87aac7272f1a44a861ad606",
                  "system":"urn:oid:google/reconciliation-id"
               }
            ],
            "address":[
               {
                  "state":"MI",
                  "postalCode":"02368",
                  "country":"US",
                  "line":[
                     "1003 Health Care Drive"
                  ],
                  "city":"Ann Arbor"
               }
            ]
         }
      },
      {
         "resource":{
            "identifier":[
               {
                  "value":"1234",
                  "system":"urn:oid:2.16.840.1.113883.19"
               },
               {
                  "system":"urn:oid:google/reconciliation-id",
                  "value":"23f187fbcd5ea61684e6c6db95b70e04"
               }
            ],
            "resourceType":"PractitionerRole",
            "telecom":[
               {
                  "system":"phone",
                  "value":"tel: +1(555)-555-5004"
               }
            ],
            "location":[
               {
                  "reference":"Location/41400445ca98befe9e212581676a87f7"
               }
            ],
            "id":"73f0e2edd2eac1b023b778cbfc1e6886",
            "organization":{
               "reference":"Organization/308942e9b87aac7272f1a44a861ad606"
            }
         }
      },
      {
         "resource":{
            "resourceType":"Device",
            "id":"5ee8fdde0f888bb8a4f05b8388009031",
            "identifier":[
               {
                  "value":"5ee8fdde0f888bb8a4f05b8388009031",
                  "system":"urn:oid:google/reconciliation-id"
               }
            ],
            "type":{
               "coding":[
                  {
                     "code":"87405001",
                     "display":"cane",
                     "system":"urn:oid:2.16.840.1.113883.6.96"
                  }
               ]
            }
         }
      },
      {
         "resource":{
            "identifier":[
               {
                  "value":"950a26576a2c79f890b41ef04429c18b",
                  "system":"urn:oid:google/reconciliation-id"
               }
            ],
            "performedDateTime":"2013-05-12T00:00:00+05:00",
            "resourceType":"Procedure",
            "performer":[
               {
                  "actor":{
                     "reference":"PractitionerRole/73f0e2edd2eac1b023b778cbfc1e6886"
                  }
               }
            ],
            "subject":{
               "reference":"Patient/50852d7579eefa2e08d4c1d663b5e921"
            },
            "code":{
               "coding":[
                  {
                     "display":"Stent Placement",
                     "system":"urn:oid:2.16.840.1.113883.6.96",
                     "code":"103716009"
                  }
               ]
            },
            "bodySite":[
               {
                  "coding":[
                     {
                        "display":"bile duct",
                        "system":"urn:oid:2.16.840.1.113883.6.96",
                        "code":"28273000"
                     }
                  ]
               }
            ],
            "status":"completed",
            "id":"950a26576a2c79f890b41ef04429c18b"
         }
      },
      {
         "resource":{
            "resourceType":"Device",
            "id":"d3dca7442e590736de2ca9feb9fe4f1d",
            "identifier":[
               {
                  "value":"d3dca7442e590736de2ca9feb9fe4f1d",
                  "system":"urn:oid:google/reconciliation-id"
               }
            ],
            "type":{
               "coding":[
                  {
                     "display":"cardiac pacemaker, device (physical object)",
                     "system":"urn:oid:2.16.840.1.113883.6.96",
                     "code":"14106009"
                  }
               ]
            }
         }
      },
      {
         "resource":{
            "id":"070a79b171b044c8164250f36d09a0cc",
            "identifier":[
               {
                  "system":"urn:oid:google/reconciliation-id",
                  "value":"070a79b171b044c8164250f36d09a0cc"
               }
            ],
            "type":{
               "coding":[
                  {
                     "display":"upper gastrointestinal prosthesis (physical object)",
                     "system":"urn:oid:2.16.840.1.113883.6.96",
                     "code":"303406003"
                  }
               ]
            },
            "resourceType":"Device"
         }
      },
      {
         "resource":{
            "resourceType":"Organization",
            "name":"Medication Factory Inc.",
            "identifier":[
               {
                  "value":"5e0ff8fa0f55b0f9e4d47a0ee29f7490",
                  "system":"urn:oid:google/reconciliation-id"
               }
            ],
            "id":"5e0ff8fa0f55b0f9e4d47a0ee29f7490"
         }
      },
      {
         "resource":{
            "identifier":[
               {
                  "value":"74eb8e04c3c962ea92ce65de4ed16f22",
                  "system":"urn:oid:google/reconciliation-id"
               }
            ],
            "manufacturer":{
               "reference":"Organization/5e0ff8fa0f55b0f9e4d47a0ee29f7490"
            },
            "resourceType":"Medication",
            "code":{
               "coding":[
                  {
                     "system":"urn:oid:2.16.840.1.113883.6.88",
                     "code":"573621",
                     "display":"Proventil 0.09 MG/ACTUAT inhalant solution"
                  }
               ]
            },
            "id":"74eb8e04c3c962ea92ce65de4ed16f22"
         }
      },
      {
         "resource":{
            "clinicalStatus":{
               "coding":[
                  {
                     "code":"active",
                     "system":"http://terminology.hl7.org/CodeSystem/condition-clinical"
                  }
               ]
            },
            "onsetDateTime":"2011-01-03T00:00:00+01:00",
            "subject":{
               "reference":"Patient/50852d7579eefa2e08d4c1d663b5e921"
            },
            "resourceType":"Condition",
            "identifier":[
               {
                  "value":"45665",
                  "system":"urn:oid:db734647-fc99-424c-a864-7e3cda82e703"
               },
               {
                  "value":"0847b521339eae63dac70ff5bf328160",
                  "system":"urn:oid:google/reconciliation-id"
               }
            ],
            "category":[
               {
                  "coding":[
                     {
                        "system":"urn:oid:2.16.840.1.113883.6.1",
                        "code":"75321-0",
                        "display":"Clinical finding"
                     }
                  ]
               }
            ],
            "id":"c4fc2e60887a5e4b156110118d382c76",
            "code":{
               "coding":[
                  {
                     "code":"195967001",
                     "display":"Asthma",
                     "system":"urn:oid:2.16.840.1.113883.6.96"
                  }
               ]
            }
         }
      },
      {
         "resource":{
            "id":"63fe0fd6e3baf46a2188bc2703984ea8",
            "resourceType":"Location",
            "address":{
               "postalCode":"99123",
               "country":"US",
               "line":[
                  "1016 Health Drive"
               ],
               "city":"Portland",
               "state":"OR"
            },
            "identifier":[
               {
                  "value":"63fe0fd6e3baf46a2188bc2703984ea8",
                  "system":"urn:oid:google/reconciliation-id"
               }
            ]
         }
      },
      {
         "resource":{
            "identifier":[
               {
                  "system":"urn:oid:google/reconciliation-id",
                  "value":"b30a9b8c24a10a1f790fc4d65f3eb108"
               }
            ],
            "resourceType":"Practitioner",
            "name":[
               {
                  "given":[
                     "Susan"
                  ],
                  "use":"usual",
                  "family":"Script"
               }
            ],
            "id":"b30a9b8c24a10a1f790fc4d65f3eb108"
         }
      },
      {
         "resource":{
            "identifier":[
               {
                  "system":"urn:oid:google/reconciliation-id",
                  "value":"3477ccd3d730a4b272d1335c5a889c55"
               }
            ],
            "resourceType":"Organization",
            "name":"People's Pharmacy",
            "id":"3477ccd3d730a4b272d1335c5a889c55"
         }
      },
      {
         "resource":{
            "identifier":[
               {
                  "system":"urn:oid:2.16.840.1.113883.4.6",
                  "value":"333222222"
               },
               {
                  "value":"45a9e2d3db1a8fa1d136b2923a6e978d",
                  "system":"urn:oid:google/reconciliation-id"
               }
            ],
            "resourceType":"PractitionerRole",
            "telecom":[
               {
                  "system":"phone",
                  "value":"tel:+1(555)555-1016"
               }
            ],
            "location":[
               {
                  "reference":"Location/63fe0fd6e3baf46a2188bc2703984ea8"
               }
            ],
            "practitioner":{
               "reference":"Practitioner/b30a9b8c24a10a1f790fc4d65f3eb108"
            },
            "organization":{
               "reference":"Organization/3477ccd3d730a4b272d1335c5a889c55"
            },
            "id":"1b732622f661e62c86457a8fd033ac52"
         }
      },
      {
         "resource":{
            "whenPrepared":"2008-08-15T14:50:00+08:00",
            "id":"9fe76060fc2c88ed12fea5363a15eadf",
            "whenHandedOver":"2008-08-15T14:50:00+08:00",
            "medicationReference":{
               "reference":"Medication/74eb8e04c3c962ea92ce65de4ed16f22"
            },
            "identifier":[
               {
                  "system":"urn:oid:1.2.3.4.56789.1",
                  "value":"cb734647-fc99-424c-a864-7e3cda82e704"
               },
               {
                  "value":"373120059816e816db0430e63f59f9c4",
                  "system":"urn:oid:google/reconciliation-id"
               }
            ],
            "resourceType":"MedicationDispense",
            "status":"completed",
            "dosageInstruction":[
               {
                  "doseAndRate":[
                     {
                        "doseQuantity":{
                           "value":75
                        }
                     }
                  ]
               }
            ],
            "quantity":{
               "value":75
            },
            "performer":[
               {
                  "actor":{
                     "reference":"PractitionerRole/1b732622f661e62c86457a8fd033ac52"
                  }
               }
            ]
         }
      },
      {
         "resource":{
            "resourceType":"Medication",
            "code":{
               "coding":[
                  {
                     "system":"urn:oid:2.16.840.1.113883.6.88",
                     "code":"197380",
                     "display":"Atenolol 25 MG Oral Tablet"
                  }
               ]
            },
            "id":"f1036ff280e7bf9c05a707240a8b0de3",
            "identifier":[
               {
                  "value":"f1036ff280e7bf9c05a707240a8b0de3",
                  "system":"urn:oid:google/reconciliation-id"
               }
            ]
         }
      },
      {
         "resource":{
            "category":[
               {
                  "coding":[
                     {
                        "code":"75321-0",
                        "display":"Clinical finding",
                        "system":"urn:oid:2.16.840.1.113883.6.1"
                     }
                  ]
               }
            ],
            "id":"f880d9897067c5ba0c5ff2910c589f5d",
            "code":{
               "coding":[
                  {
                     "code":"38341003",
                     "display":"Hypertension",
                     "system":"urn:oid:2.16.840.1.113883.6.96"
                  }
               ]
            },
            "identifier":[
               {
                  "value":"f880d9897067c5ba0c5ff2910c589f5d",
                  "system":"urn:oid:google/reconciliation-id"
               }
            ],
            "subject":{
               "reference":"Patient/50852d7579eefa2e08d4c1d663b5e921"
            },
            "resourceType":"Condition"
         }
      },
      {
         "resource":{
            "dosage":[
               {
                  "route":{
                     "coding":[
                        {
                           "system":"urn:oid:2.16.840.1.113883.3.26.1.1",
                           "code":"C38216",
                           "display":"RESPIRATORY (INHALATION)"
                        }
                     ]
                  },
                  "doseAndRate":[
                     {
                        "doseQuantity":{
                           "value":2
                        }
                     }
                  ]
               }
            ],
            "partOf":[
               {
                  "reference":"MedicationDispense/9fe76060fc2c88ed12fea5363a15eadf"
               }
            ],
            "subject":{
               "reference":"Patient/50852d7579eefa2e08d4c1d663b5e921"
            },
            "medicationReference":{
               "reference":"Medication/74eb8e04c3c962ea92ce65de4ed16f22"
            },
            "reasonReference":[
               {
                  "reference":"Condition/c4fc2e60887a5e4b156110118d382c76"
               }
            ],
            "status":"active",
            "resourceType":"MedicationStatement",
            "id":"67857c918b0b05f894686c521dd35527",
            "identifier":[
               {
                  "system":"urn:oid:google/reconciliation-id",
                  "value":"67857c918b0b05f894686c521dd35527"
               }
            ]
         }
      },
      {
         "resource":{
            "identifier":[
               {
                  "value":"473a96c06035d2c960ba2dc6fe72a627",
                  "system":"urn:oid:google/reconciliation-id"
               }
            ],
            "subject":{
               "reference":"Patient/50852d7579eefa2e08d4c1d663b5e921"
            },
            "resourceType":"MedicationStatement",
            "status":"active",
            "medicationReference":{
               "reference":"Medication/f1036ff280e7bf9c05a707240a8b0de3"
            },
            "id":"473a96c06035d2c960ba2dc6fe72a627",
            "dosage":[
               {
                  "route":{
                     "coding":[
                        {
                           "display":"ORAL",
                           "system":"urn:oid:2.16.840.1.113883.3.26.1.1",
                           "code":"C38288"
                        }
                     ]
                  },
                  "doseAndRate":[
                     {
                        "doseQuantity":{
                           "value":1
                        }
                     }
                  ]
               }
            ],
            "reasonReference":[
               {
                  "reference":"Condition/f880d9897067c5ba0c5ff2910c589f5d"
               }
            ]
         }
      },
      {
         "resource":{
            "resourceType":"Organization",
            "id":"366060a611279f3530f812ebc9ab6192",
            "identifier":[
               {
                  "value":"366060a611279f3530f812ebc9ab6192",
                  "system":"urn:oid:google/reconciliation-id"
               }
            ],
            "name":"Health LS - Immuno Inc."
         }
      },
      {
         "resource":{
            "resourceType":"Location",
            "address":{
               "country":"US",
               "line":[
                  "1007 Health Drive"
               ],
               "city":"Portland",
               "state":"OR",
               "postalCode":"99123"
            },
            "id":"ca6f61bf991c8a3f0860b6cd4ded1b1a",
            "identifier":[
               {
                  "value":"ca6f61bf991c8a3f0860b6cd4ded1b1a",
                  "system":"urn:oid:google/reconciliation-id"
               }
            ]
         }
      },
      {
         "resource":{
            "id":"cea4d83ca89670a9587ff0f83a82e719",
            "identifier":[
               {
                  "value":"cea4d83ca89670a9587ff0f83a82e719",
                  "system":"urn:oid:google/reconciliation-id"
               }
            ],
            "name":[
               {
                  "use":"usual",
                  "family":"Hippocrates",
                  "given":[
                     "Harold"
                  ]
               }
            ],
            "resourceType":"Practitioner"
         }
      },
      {
         "resource":{
            "id":"c74ff7b40e8e741855deaddeaf650d61",
            "identifier":[
               {
                  "value":"c74ff7b40e8e741855deaddeaf650d61",
                  "system":"urn:oid:google/reconciliation-id"
               }
            ],
            "resourceType":"Organization",
            "name":"Good Health Clinic",
            "telecom":[
               {
                  "value":"tel: +1(555)555-1030",
                  "system":"phone"
               }
            ],
            "address":[
               {
                  "postalCode":"99123",
                  "country":"US",
                  "line":[
                     "1007 Health Drive"
                  ],
                  "city":"Portland",
                  "state":"OR"
               }
            ]
         }
      },
      {
         "resource":{
            "practitioner":{
               "reference":"Practitioner/cea4d83ca89670a9587ff0f83a82e719"
            },
            "organization":{
               "reference":"Organization/c74ff7b40e8e741855deaddeaf650d61"
            },
            "identifier":[
               {
                  "value":"2981824",
                  "system":"urn:oid:2.16.840.1.113883.19.5.9999.456"
               },
               {
                  "value":"41672c00691fa963e00f9a3b4ff39f9a",
                  "system":"urn:oid:google/reconciliation-id"
               }
            ],
            "id":"8ae17c406bfd8144aadc4b8423705755",
            "resourceType":"PractitionerRole",
            "telecom":[
               {
                  "system":"phone",
                  "value":"tel: +1(555)555-1030"
               }
            ],
            "location":[
               {
                  "reference":"Location/ca6f61bf991c8a3f0860b6cd4ded1b1a"
               }
            ]
         }
      },
      {
         "resource":{
            "resourceType":"Organization",
            "id":"4e1eae5c153cc856cb4b9fb9e2fb8345",
            "identifier":[
               {
                  "system":"urn:oid:google/reconciliation-id",
                  "value":"4e1eae5c153cc856cb4b9fb9e2fb8345"
               }
            ],
            "name":"Good Health Clinic",
            "telecom":[
               {
                  "value":"tel: +1(555)555-1030",
                  "system":"phone"
               }
            ]
         }
      },
      {
         "resource":{
            "resourceType":"PractitionerRole",
            "id":"03040f7ee48b911a812676f508392601",
            "telecom":[
               {
                  "value":"tel: +1(555)555-1030",
                  "system":"phone"
               }
            ],
            "location":[
               {
                  "reference":"Location/ca6f61bf991c8a3f0860b6cd4ded1b1a"
               }
            ],
            "practitioner":{
               "reference":"Practitioner/cea4d83ca89670a9587ff0f83a82e719"
            },
            "organization":{
               "reference":"Organization/4e1eae5c153cc856cb4b9fb9e2fb8345"
            },
            "identifier":[
               {
                  "value":"2981824",
                  "system":"urn:oid:2.16.840.1.113883.19.5.9999.456"
               },
               {
                  "system":"urn:oid:google/reconciliation-id",
                  "value":"41672c00691fa963e00f9a3b4ff39f9a"
               }
            ]
         }
      },
      {
         "resource":{
            "identifier":[
               {
                  "value":"5bf10bc5556a6257f85ffb752dafaf4c",
                  "system":"urn:oid:google/reconciliation-id"
               }
            ],
            "manufacturer":{
               "reference":"Organization/366060a611279f3530f812ebc9ab6192"
            },
            "vaccineCode":{
               "coding":[
                  {
                     "display":"Influenza virus vaccine",
                     "system":"urn:oid:2.16.840.1.113883.6.59",
                     "code":"88"
                  }
               ]
            },
            "recorded":"1999-11-01T00:00:00+11:00",
            "performer":[
               {
                  "actor":{
                     "reference":"PractitionerRole/8ae17c406bfd8144aadc4b8423705755"
                  }
               }
            ],
            "doseQuantity":{
               "unit":"ug",
               "value":50
            },
            "route":{
               "coding":[
                  {
                     "system":"urn:oid:2.16.840.1.113883.3.26.1.1",
                     "code":"C28161",
                     "display":"Intramuscular injection"
                  }
               ]
            },
            "status":"completed",
            "patient":{
               "reference":"Patient/50852d7579eefa2e08d4c1d663b5e921"
            },
            "resourceType":"Immunization",
            "id":"5bf10bc5556a6257f85ffb752dafaf4c",
            "occurrenceDateTime":"1999-11-01T00:00:00+11:00",
            "lotNumber":"1"
         }
      },
      {
         "resource":{
            "occurrenceDateTime":"1998-12-15T00:00:00+12:00",
            "doseQuantity":{
               "unit":"ug",
               "value":50
            },
            "lotNumber":"1",
            "recorded":"1998-12-15T00:00:00+12:00",
            "vaccineCode":{
               "coding":[
                  {
                     "code":"88",
                     "display":"Influenza virus vaccine",
                     "system":"urn:oid:2.16.840.1.113883.6.59"
                  }
               ]
            },
            "performer":[
               {
                  "actor":{
                     "reference":"PractitionerRole/8ae17c406bfd8144aadc4b8423705755"
                  }
               }
            ],
            "status":"completed",
            "route":{
               "coding":[
                  {
                     "display":"Intramuscular injection",
                     "system":"urn:oid:2.16.840.1.113883.3.26.1.1",
                     "code":"C28161"
                  }
               ]
            },
            "id":"24a7b141ec943087405c7956784c4164",
            "identifier":[
               {
                  "value":"24a7b141ec943087405c7956784c4164",
                  "system":"urn:oid:google/reconciliation-id"
               }
            ],
            "patient":{
               "reference":"Patient/50852d7579eefa2e08d4c1d663b5e921"
            },
            "resourceType":"Immunization",
            "manufacturer":{
               "reference":"Organization/366060a611279f3530f812ebc9ab6192"
            }
         }
      },
      {
         "resource":{
            "id":"dfe7fd17a058c2cdcbbb0d4651396ad5",
            "recorded":"1998-12-15T00:00:00+12:00",
            "manufacturer":{
               "reference":"Organization/366060a611279f3530f812ebc9ab6192"
            },
            "resourceType":"Immunization",
            "status":"completed",
            "identifier":[
               {
                  "value":"dfe7fd17a058c2cdcbbb0d4651396ad5",
                  "system":"urn:oid:google/reconciliation-id"
               }
            ],
            "performer":[
               {
                  "actor":{
                     "reference":"PractitionerRole/8ae17c406bfd8144aadc4b8423705755"
                  }
               }
            ],
            "lotNumber":"1",
            "occurrenceDateTime":"1998-12-15T00:00:00+12:00",
            "route":{
               "coding":[
                  {
                     "code":"C28161",
                     "display":"Intramuscular injection",
                     "system":"urn:oid:2.16.840.1.113883.3.26.1.1"
                  }
               ]
            },
            "patient":{
               "reference":"Patient/50852d7579eefa2e08d4c1d663b5e921"
            },
            "doseQuantity":{
               "unit":"ug",
               "value":50
            },
            "vaccineCode":{
               "coding":[
                  {
                     "display":"Pneumococcal polysaccharide vaccine",
                     "system":"urn:oid:2.16.840.1.113883.6.59",
                     "code":"33"
                  }
               ]
            }
         }
      },
      {
         "resource":{
            "occurrenceDateTime":"1998-12-15T00:00:00+12:00",
            "identifier":[
               {
                  "value":"066d0ca6cbfbbc8ba8a83f8e2facbd0d",
                  "system":"urn:oid:google/reconciliation-id"
               }
            ],
            "status":"completed",
            "id":"066d0ca6cbfbbc8ba8a83f8e2facbd0d",
            "manufacturer":{
               "reference":"Organization/366060a611279f3530f812ebc9ab6192"
            },
            "performer":[
               {
                  "actor":{
                     "reference":"PractitionerRole/03040f7ee48b911a812676f508392601"
                  }
               }
            ],
            "statusReason":{
               "coding":[
                  {
                     "code":"PATOBJ",
                     "display":"Patient Objection",
                     "system":"urn:oid:2.16.840.1.113883.5.8"
                  }
               ]
            },
            "vaccineCode":{
               "coding":[
                  {
                     "display":"Tetanus and diphtheria toxoids - preservative free",
                     "system":"urn:oid:2.16.840.1.113883.6.59",
                     "code":"103"
                  }
               ]
            },
            "resourceType":"Immunization",
            "doseQuantity":{
               "value":50,
               "unit":"ug"
            },
            "recorded":"1998-12-15T00:00:00+12:00",
            "patient":{
               "reference":"Patient/50852d7579eefa2e08d4c1d663b5e921"
            },
            "lotNumber":"1",
            "route":{
               "coding":[
                  {
                     "display":"Intramuscular injection",
                     "system":"urn:oid:2.16.840.1.113883.3.26.1.1",
                     "code":"C28161"
                  }
               ]
            }
         }
      },
      {
         "resource":{
            "route":{
               "coding":[
                  {
                     "system":"urn:oid:2.16.840.1.113883.3.26.1.1",
                     "code":"C28161",
                     "display":"Intramuscular injection"
                  }
               ]
            },
            "patient":{
               "reference":"Patient/50852d7579eefa2e08d4c1d663b5e921"
            },
            "vaccineCode":{
               "coding":[
                  {
                     "code":"45",
                     "display":"Hepatitis B vaccine",
                     "system":"urn:oid:2.16.840.1.113883.6.59"
                  }
               ]
            },
            "status":"completed",
            "resourceType":"Immunization",
            "performer":[
               {
                  "actor":{
                     "reference":"PractitionerRole/8ae17c406bfd8144aadc4b8423705755"
                  }
               }
            ],
            "lotNumber":"1",
            "identifier":[
               {
                  "value":"21fc2fb55f1022ec38945602d237830a",
                  "system":"urn:oid:google/reconciliation-id"
               }
            ],
            "recorded":"2013-08-01T00:00:00+08:00",
            "id":"21fc2fb55f1022ec38945602d237830a",
            "occurrenceDateTime":"2013-08-01T00:00:00+08:00"
         }
      },
      {
         "resource":{
            "clinicalStatus":{
               "coding":[
                  {
                     "code":"active",
                     "system":"http://terminology.hl7.org/CodeSystem/allergyintolerance-clinical"
                  }
               ]
            },
            "recorder":{
               "reference":"PractitionerRole/afff0c9c6cd3c5b1fa01a1bddcf5479c"
            },
            "id":"014d09b4a7add3cf067af2e183e29d9b",
            "identifier":[
               {
                  "value":"014d09b4a7add3cf067af2e183e29d9b",
                  "system":"urn:oid:google/reconciliation-id"
               }
            ],
            "patient":{
               "reference":"Patient/50852d7579eefa2e08d4c1d663b5e921"
            },
            "onsetPeriod":{
               "start":"2008-05-01T11:45:00+05:00"
            },
            "category":[
               "environment"
            ],
            "reaction":[
               {
                  "manifestation":[
                     {
                        "coding":[
                           {
                              "system":"urn:oid:2.16.840.1.113883.6.96",
                              "code":"422587007",
                              "display":"Nausea"
                           }
                        ]
                     }
                  ],
                  "severity":"mild",
                  "substance":{
                     "coding":[
                        {
                           "system":"urn:oid:2.16.840.1.113883.6.88",
                           "code":"70618",
                           "display":"Penicillin"
                        }
                     ]
                  }
               }
            ],
            "resourceType":"AllergyIntolerance"
         }
      },
      {
         "resource":{
            "id":"7e86092904c1edc7c10bf91db6ab18ec",
            "resourceType":"AllergyIntolerance",
            "patient":{
               "reference":"Patient/50852d7579eefa2e08d4c1d663b5e921"
            },
            "category":[
               "environment"
            ],
            "reaction":[
               {
                  "manifestation":[
                     {
                        "coding":[
                           {
                              "code":"56018004",
                              "display":"Wheezing",
                              "system":"urn:oid:2.16.840.1.113883.6.96"
                           }
                        ]
                     }
                  ],
                  "severity":"moderate",
                  "substance":{
                     "coding":[
                        {
                           "code":"2670",
                           "display":"Codeine",
                           "system":"urn:oid:2.16.840.1.113883.6.88"
                        }
                     ]
                  }
               }
            ],
            "onsetPeriod":{
               "start":"2008-05-01T11:45:00+05:00"
            },
            "identifier":[
               {
                  "value":"7e86092904c1edc7c10bf91db6ab18ec",
                  "system":"urn:oid:google/reconciliation-id"
               }
            ],
            "clinicalStatus":{
               "coding":[
                  {
                     "system":"http://terminology.hl7.org/CodeSystem/allergyintolerance-clinical",
                     "code":"active"
                  }
               ]
            },
            "recorder":{
               "reference":"PractitionerRole/afff0c9c6cd3c5b1fa01a1bddcf5479c"
            }
         }
      },
      {
         "resource":{
            "target":[
               {
                  "reference":"Location/e4e3608bb55480dc5181bce296f01420"
               },
               {
                  "reference":"Practitioner/a2d1849aa3bcf23e779a5a256510717e"
               },
               {
                  "reference":"Organization/3dffa979dcabbad90c399d5ae67d4f72"
               },
               {
                  "reference":"Organization/99ff65822887d5f26a88b5bd889b7e1c"
               },
               {
                  "reference":"PractitionerRole/56e0b7becb939173b9d9c658c9e82361"
               },
               {
                  "reference":"Patient/50852d7579eefa2e08d4c1d663b5e921"
               },
               {
                  "reference":"Organization/7aec365dfedc274376481f5f95cbec10"
               },
               {
                  "reference":"DocumentReference/a7f91317fcc6267e973a436374080d00"
               },
               {
                  "reference":"PractitionerRole/55c837aa015a214540ee84e7b6c57de8"
               },
               {
                  "reference":"FamilyMemberHistory/c8424a4346a74683fe155423cc785fdf"
               },
               {
                  "reference":"PractitionerRole/afff0c9c6cd3c5b1fa01a1bddcf5479c"
               },
               {
                  "reference":"Observation/deba823ffc5715cfb7de91142d1a0142"
               },
               {
                  "reference":"Observation/d4bff4dcf358e41d9efca3a0088bd1cd"
               },
               {
                  "reference":"Observation/779bbf895832983422f3c7f25f3fda4b"
               },
               {
                  "reference":"Observation/72bd4db02d5ce88919acf99ec4b7a40f"
               },
               {
                  "reference":"Observation/5b9a3ecbd2c3093c49f45b9654b29bbd"
               },
               {
                  "reference":"Observation/4ae4d8413d11a07ca4705738f26e7413"
               },
               {
                  "reference":"Observation/252e36a12b7875be228e50986ad5b340"
               },
               {
                  "reference":"Observation/eff8f5f872c2867b872b2c29d68ef394"
               },
               {
                  "reference":"Observation/95c2991dad87855e95ece6eb0e4b9783"
               },
               {
                  "reference":"Observation/03836f89baa1fe98a4f8aa99ec1556a1"
               },
               {
                  "reference":"Observation/ffa92531bf7627adff2dcda6eaec046d"
               },
               {
                  "reference":"PractitionerRole/b5ff31101ca7ee20724b9764eebcf529"
               },
               {
                  "reference":"Location/58cd28428d21ac715afad3ece3573fd9"
               },
               {
                  "reference":"Encounter/a2c0e8a0e824ab057f5aa2e90a6c3ace"
               },
               {
                  "reference":"Device/00a286095aa136a27c51b25424719762"
               },
               {
                  "reference":"Observation/987be6b25f066df3ebc8760b20c1e896"
               },
               {
                  "reference":"Observation/dff3005f43dd6b33a7ec6ba484ba0f99"
               },
               {
                  "reference":"PractitionerRole/9cabf432ce5fa2a91363c7f9da490d15"
               },
               {
                  "reference":"Condition/56722a50775e1d38c248c7f49b3cd723"
               },
               {
                  "reference":"Condition/35d36e9dde1aa0fe5619e2eb40ad3cfc"
               },
               {
                  "reference":"Condition/1ac184bd233ee86dcd7f20b8f597da9d"
               },
               {
                  "reference":"Condition/25a4da29896b9cd190b3baf028923b94"
               },
               {
                  "reference":"Location/5532c3e245654abde1033d1ca44289dc"
               },
               {
                  "reference":"Organization/98db750b2f6b9212a6b531ea18efdf21"
               },
               {
                  "reference":"PractitionerRole/c4bdf59ec9c794634880da95c8cfb1a4"
               },
               {
                  "reference":"Procedure/7f676442d5683711614ceda79b3efa93"
               },
               {
                  "reference":"PractitionerRole/9bc5aeefdd56fd93a591b446aae81c53"
               },
               {
                  "reference":"Observation/537f3bf262ec9a2194880e79372eb82a"
               },
               {
                  "reference":"Observation/222e3fc67d5ab0a18169224398097130"
               },
               {
                  "reference":"Observation/a8c45ae1d41a0180c533067ee3bbd237"
               },
               {
                  "reference":"Observation/f79c89da4ce7561a6e9b2953c537c1e8"
               },
               {
                  "reference":"Observation/ddc557a54a956c174bea2ac15f76eeab"
               },
               {
                  "reference":"Observation/92ba6e299e87d53e7cd4ea141e39cbcd"
               },
               {
                  "reference":"DiagnosticReport/05d1fc7bfda947279022ade0247e77af"
               },
               {
                  "reference":"DiagnosticReport/a1cf0fc41341bedb8965b51617f20357"
               },
               {
                  "reference":"Location/41400445ca98befe9e212581676a87f7"
               },
               {
                  "reference":"Organization/308942e9b87aac7272f1a44a861ad606"
               },
               {
                  "reference":"PractitionerRole/73f0e2edd2eac1b023b778cbfc1e6886"
               },
               {
                  "reference":"Device/5ee8fdde0f888bb8a4f05b8388009031"
               },
               {
                  "reference":"Procedure/950a26576a2c79f890b41ef04429c18b"
               },
               {
                  "reference":"Device/d3dca7442e590736de2ca9feb9fe4f1d"
               },
               {
                  "reference":"Device/070a79b171b044c8164250f36d09a0cc"
               },
               {
                  "reference":"Organization/5e0ff8fa0f55b0f9e4d47a0ee29f7490"
               },
               {
                  "reference":"Medication/74eb8e04c3c962ea92ce65de4ed16f22"
               },
               {
                  "reference":"Condition/c4fc2e60887a5e4b156110118d382c76"
               },
               {
                  "reference":"Location/63fe0fd6e3baf46a2188bc2703984ea8"
               },
               {
                  "reference":"Practitioner/b30a9b8c24a10a1f790fc4d65f3eb108"
               },
               {
                  "reference":"Organization/3477ccd3d730a4b272d1335c5a889c55"
               },
               {
                  "reference":"PractitionerRole/1b732622f661e62c86457a8fd033ac52"
               },
               {
                  "reference":"MedicationDispense/9fe76060fc2c88ed12fea5363a15eadf"
               },
               {
                  "reference":"Medication/f1036ff280e7bf9c05a707240a8b0de3"
               },
               {
                  "reference":"Condition/f880d9897067c5ba0c5ff2910c589f5d"
               },
               {
                  "reference":"MedicationStatement/67857c918b0b05f894686c521dd35527"
               },
               {
                  "reference":"MedicationStatement/473a96c06035d2c960ba2dc6fe72a627"
               },
               {
                  "reference":"Organization/366060a611279f3530f812ebc9ab6192"
               },
               {
                  "reference":"Location/ca6f61bf991c8a3f0860b6cd4ded1b1a"
               },
               {
                  "reference":"Practitioner/cea4d83ca89670a9587ff0f83a82e719"
               },
               {
                  "reference":"Organization/c74ff7b40e8e741855deaddeaf650d61"
               },
               {
                  "reference":"PractitionerRole/8ae17c406bfd8144aadc4b8423705755"
               },
               {
                  "reference":"Organization/4e1eae5c153cc856cb4b9fb9e2fb8345"
               },
               {
                  "reference":"PractitionerRole/03040f7ee48b911a812676f508392601"
               },
               {
                  "reference":"Immunization/5bf10bc5556a6257f85ffb752dafaf4c"
               },
               {
                  "reference":"Immunization/24a7b141ec943087405c7956784c4164"
               },
               {
                  "reference":"Immunization/dfe7fd17a058c2cdcbbb0d4651396ad5"
               },
               {
                  "reference":"Immunization/066d0ca6cbfbbc8ba8a83f8e2facbd0d"
               },
               {
                  "reference":"Immunization/21fc2fb55f1022ec38945602d237830a"
               },
               {
                  "reference":"AllergyIntolerance/014d09b4a7add3cf067af2e183e29d9b"
               },
               {
                  "reference":"AllergyIntolerance/7e86092904c1edc7c10bf91db6ab18ec"
               },
               {
                  "reference":"Composition/"
               }
            ],
            "agent":[
               {
                  "who":{
                     "reference":"Organization/7aec365dfedc274376481f5f95cbec10"
                  },
                  "type":{
                     "coding":[
                        {
                           "code":"custodian",
                           "system":"http://terminology.hl7.org/CodeSystem/provenance-participant-type"
                        }
                     ]
                  }
               }
            ],
            "entity":[
               {
                  "role":"source",
                  "what":{
                     "reference":"DocumentReference/a7f91317fcc6267e973a436374080d00"
                  }
               }
            ],
            "resourceType":"Provenance",
            "id":"01010101-0101-4101-8101-010101010101",
            "recorded":"2008-08-15T10:30:00.158815Z"
         }
      }
   ],
   "resourceType":"Bundle"
}
