{
   "timestamp":"2008-08-15T10:30:00.158815Z",
   "type":"document",
   "entry":[
      {
         "resource":{
            "attester":[
               {
                  "mode":"professional",
                  "party":{
                     "reference":"PractitionerRole/04040404-0404-4404-8404-040404040404"
                  }
               },
               {
                  "mode":"legal",
                  "party":{
                     "reference":"PractitionerRole/07070707-0707-4707-8707-070707070707"
                  }
               }
            ],
            "resourceType":"Composition",
            "status":"preliminary",
            "type":{
               "coding":[
                  {
                     "system":"urn:oid:2.16.840.1.113883.6.1",
                     "code":"34133-9",
                     "display":"Summarization of Episode Note"
                  }
               ]
            },
            "author":[
               {
                  "reference":"PractitionerRole/01010101-0101-4101-8101-010101010101"
               }
            ],
            "title":"Patient Chart Summary",
            "custodian":{
               "reference":"Organization/10101010-1010-4010-9010-101010101010"
            },
            "section":[
               {
                  "code":{
                     "coding":[
                        {
                           "code":"10157-6",
                           "system":"urn:oid:2.16.840.1.113883.6.1"
                        }
                     ]
                  },
                  "entry":[
                     {
                        "reference":"FamilyMemberHistory/11111111-1111-4111-9111-111111111111"
                     }
                  ],
                  "title":"FAMILY HISTORY"
               },
               {
                  "title":"VITAL SIGNS",
                  "code":{
                     "coding":[
                        {
                           "code":"8716-3",
                           "display":"VITAL SIGNS",
                           "system":"urn:oid:2.16.840.1.113883.6.1"
                        }
                     ]
                  },
                  "entry":[
                     {
                        "reference":"Observation/12121212-1212-4212-9212-121212121212"
                     },
                     {
                        "reference":"Observation/14141414-1414-4414-9414-141414141414"
                     },
                     {
                        "reference":"Observation/16161616-1616-4616-9616-161616161616"
                     },
                     {
                        "reference":"Observation/18181818-1818-4818-9818-181818181818"
                     },
                     {
                        "reference":"Observation/1a1a1a1a-1a1a-4a1a-9a1a-1a1a1a1a1a1a"
                     },
                     {
                        "reference":"Observation/1c1c1c1c-1c1c-4c1c-9c1c-1c1c1c1c1c1c"
                     },
                     {
                        "reference":"Observation/1e1e1e1e-1e1e-4e1e-9e1e-1e1e1e1e1e1e"
                     },
                     {
                        "reference":"Observation/20202020-2020-4020-a020-202020202020"
                     }
                  ]
               },
               {
                  "code":{
                     "coding":[
                        {
                           "code":"29762-2",
                           "display":"Social History",
                           "system":"urn:oid:2.16.840.1.113883.6.1"
                        }
                     ]
                  },
                  "entry":[
                     {
                        "reference":"Observation/22222222-2222-4222-a222-222222222222"
                     },
                     {
                        "reference":"Observation/24242424-2424-4424-a424-242424242424"
                     },
                     {
                        "reference":"Observation/26262626-2626-4626-a626-262626262626"
                     }
                  ],
                  "title":"SOCIAL HISTORY"
               },
               {
                  "title":"ENCOUNTERS",
                  "code":{
                     "coding":[
                        {
                           "code":"46240-8",
                           "display":"History of encounters",
                           "system":"urn:oid:2.16.840.1.113883.6.1"
                        }
                     ]
                  },
                  "entry":[
                     {
                        "reference":"Encounter/28282828-2828-4828-a828-282828282828"
                     }
                  ]
               },
               {
                  "title":"FUNCTIONAL STATUS",
                  "code":{
                     "coding":[
                        {
                           "display":"Functional Status",
                           "system":"urn:oid:2.16.840.1.113883.6.1",
                           "code":"47420-5"
                        }
                     ]
                  },
                  "entry":[
                     {
                        "reference":"Observation/2b2b2b2b-2b2b-4b2b-ab2b-2b2b2b2b2b2b"
                     },
                     {
                        "reference":"Observation/2e2e2e2e-2e2e-4e2e-ae2e-2e2e2e2e2e2e"
                     }
                  ]
               },
               {
                  "title":"PROBLEMS",
                  "code":{
                     "coding":[
                        {
                           "display":"PROBLEM LIST",
                           "system":"urn:oid:2.16.840.1.113883.6.1",
                           "code":"11450-4"
                        }
                     ]
                  },
                  "entry":[
                     {
                        "reference":"Condition/30303030-3030-4030-b030-303030303030"
                     },
                     {
                        "reference":"Condition/32323232-3232-4232-b232-323232323232"
                     },
                     {
                        "reference":"Condition/34343434-3434-4434-b434-343434343434"
                     },
                     {
                        "reference":"Condition/36363636-3636-4636-b636-363636363636"
                     }
                  ]
               },
               {
                  "title":"PROCEDURES",
                  "code":{
                     "coding":[
                        {
                           "display":"HISTORY OF PROCEDURES",
                           "system":"urn:oid:2.16.840.1.113883.6.1",
                           "code":"47519-4"
                        }
                     ]
                  },
                  "entry":[
                     {
                        "reference":"Procedure/38383838-3838-4838-b838-383838383838"
                     }
                  ]
               },
               {
                  "code":{
                     "coding":[
                        {
                           "display":"RESULTS",
                           "system":"urn:oid:2.16.840.1.113883.6.1",
                           "code":"30954-2"
                        }
                     ]
                  },
                  "entry":[
                     {
                        "reference":"DiagnosticReport/3c3c3c3c-3c3c-4c3c-bc3c-3c3c3c3c3c3c"
                     },
                     {
                        "reference":"DiagnosticReport/47474747-4747-4747-8747-474747474747"
                     }
                  ],
                  "title":"RESULTS"
               },
               {
                  "code":{
                     "coding":[
                        {
                           "system":"urn:oid:2.16.840.1.113883.6.1",
                           "code":"46264-8"
                        }
                     ]
                  },
                  "entry":[
                     {
                        "reference":"Device/49494949-4949-4949-8949-494949494949"
                     },
                     {
                        "reference":"Procedure/4a4a4a4a-4a4a-4a4a-8a4a-4a4a4a4a4a4a"
                     },
                     {
                        "reference":"Device/4e4e4e4e-4e4e-4e4e-8e4e-4e4e4e4e4e4e"
                     },
                     {
                        "reference":"Device/4f4f4f4f-4f4f-4f4f-8f4f-4f4f4f4f4f4f"
                     }
                  ],
                  "title":"MEDICAL EQUIPMENT"
               },
               {
                  "entry":[
                     {
                        "reference":"MedicationStatement/50505050-5050-4050-9050-505050505050"
                     },
                     {
                        "reference":"MedicationStatement/5b5b5b5b-5b5b-4b5b-9b5b-5b5b5b5b5b5b"
                     }
                  ],
                  "title":"MEDICATIONS",
                  "code":{
                     "coding":[
                        {
                           "display":"HISTORY OF MEDICATION USE",
                           "system":"urn:oid:2.16.840.1.113883.6.1",
                           "code":"10160-0"
                        }
                     ]
                  }
               },
               {
                  "code":{
                     "coding":[
                        {
                           "system":"urn:oid:2.16.840.1.113883.6.1",
                           "code":"11369-6",
                           "display":"History of immunizations"
                        }
                     ]
                  },
                  "entry":[
                     {
                        "reference":"Immunization/5e5e5e5e-5e5e-4e5e-9e5e-5e5e5e5e5e5e"
                     },
                     {
                        "reference":"Immunization/64646464-6464-4464-a464-646464646464"
                     },
                     {
                        "reference":"Immunization/6a6a6a6a-6a6a-4a6a-aa6a-6a6a6a6a6a6a"
                     },
                     {
                        "reference":"Immunization/70707070-7070-4070-b070-707070707070"
                     },
                     {
                        "reference":"Immunization/76767676-7676-4676-b676-767676767676"
                     }
                  ],
                  "title":"IMMUNIZATIONS"
               },
               {
                  "entry":[
                     {
                        "reference":"AllergyIntolerance/7b7b7b7b-7b7b-4b7b-bb7b-7b7b7b7b7b7b"
                     },
                     {
                        "reference":"AllergyIntolerance/7d7d7d7d-7d7d-4d7d-bd7d-7d7d7d7d7d7d"
                     }
                  ],
                  "title":"ALLERGIES AND ADVERSE REACTIONS",
                  "code":{
                     "coding":[
                        {
                           "system":"urn:oid:2.16.840.1.113883.6.1",
                           "code":"48765-2"
                        }
                     ]
                  }
               }
            ],
            "confidentiality":"N",
            "date":"2008-08-15",
            "id":"7bd162fa9d916957273970f195dcfec5",
            "identifier":{
               "value":"TT988",
               "system":"urn:oid:2.16.840.1.113883.19.5.99999.1"
            },
            "subject":{
               "reference":"Patient/0f0f0f0f-0f0f-4f0f-8f0f-0f0f0f0f0f0f"
            }
         }
      },
      {
         "resource":{
            "resourceType":"Location",
            "address":{
               "line":[
                  "1004 Healthcare Drive"
               ],
               "city":"Portland",
               "state":"OR",
               "country":"US"
            },
            "id":"02020202-0202-4202-8202-020202020202"
         }
      },
      {
         "resource":{
            "name":[
               {
                  "family":"Primary",
                  "given":[
                     "Patricia"
                  ],
                  "use":"usual"
               }
            ],
            "id":"03030303-0303-4303-8303-030303030303",
            "resourceType":"Practitioner"
         }
      },
      {
         "resource":{
            "identifier":[
               {
                  "system":"urn:oid:2.16.840.1.113883.4.6",
                  "value":"5555555555"
               }
            ],
            "resourceType":"PractitionerRole",
            "id":"01010101-0101-4101-8101-010101010101",
            "code":[
               {
                  "coding":[
                     {
                        "system":"urn:oid:2.16.840.1.113883.6.101",
                        "code":"207QA0505X",
                        "display":"Adult Medicine"
                     }
                  ]
               }
            ],
            "telecom":[
               {
                  "value":"tel:+1(555)555-1004",
                  "system":"phone"
               }
            ],
            "location":[
               {
                  "reference":"Location/02020202-0202-4202-8202-020202020202"
               }
            ],
            "practitioner":{
               "reference":"Practitioner/03030303-0303-4303-8303-030303030303"
            }
         }
      },
      {
         "resource":{
            "address":{
               "state":"OR",
               "country":"US",
               "line":[
                  "1004 Healthcare Drive"
               ],
               "city":"Portland"
            },
            "id":"05050505-0505-4505-8505-050505050505",
            "resourceType":"Location"
         }
      },
      {
         "resource":{
            "name":[
               {
                  "given":[
                     "Patricia"
                  ],
                  "use":"usual",
                  "family":"Primary"
               }
            ],
            "id":"06060606-0606-4606-8606-060606060606",
            "resourceType":"Practitioner"
         }
      },
      {
         "resource":{
            "practitioner":{
               "reference":"Practitioner/06060606-0606-4606-8606-060606060606"
            },
            "identifier":[
               {
                  "system":"urn:oid:2.16.840.1.113883.4.6",
                  "value":"5555555555"
               }
            ],
            "resourceType":"PractitionerRole",
            "id":"04040404-0404-4404-8404-040404040404",
            "code":[
               {
                  "coding":[
                     {
                        "display":"Adult Medicine",
                        "system":"urn:oid:2.16.840.1.113883.6.101",
                        "code":"207QA0505X"
                     }
                  ]
               }
            ],
            "telecom":[
               {
                  "value":"tel:+1(555)555-1004",
                  "system":"phone"
               }
            ],
            "location":[
               {
                  "reference":"Location/05050505-0505-4505-8505-050505050505"
               }
            ]
         }
      },
      {
         "resource":{
            "address":{
               "line":[
                  "1004 Healthcare Drive"
               ],
               "city":"Portland",
               "state":"OR",
               "country":"US"
            },
            "id":"08080808-0808-4808-8808-080808080808",
            "resourceType":"Location"
         }
      },
      {
         "resource":{
            "name":[
               {
                  "family":"Primary",
                  "given":[
                     "Patricia"
                  ],
                  "use":"usual"
               }
            ],
            "id":"09090909-0909-4909-8909-090909090909",
            "resourceType":"Practitioner"
         }
      },
      {
         "resource":{
            "practitioner":{
               "reference":"Practitioner/09090909-0909-4909-8909-090909090909"
            },
            "identifier":[
               {
                  "system":"urn:oid:2.16.840.1.113883.4.6",
                  "value":"5555555555"
               }
            ],
            "resourceType":"PractitionerRole",
            "id":"07070707-0707-4707-8707-070707070707",
            "code":[
               {
                  "coding":[
                     {
                        "code":"207QA0505X",
                        "display":"Adult Medicine",
                        "system":"urn:oid:2.16.840.1.113883.6.101"
                     }
                  ]
               }
            ],
            "telecom":[
               {
                  "system":"phone",
                  "value":"tel:+1(555)555-1004"
               }
            ],
            "location":[
               {
                  "reference":"Location/08080808-0808-4808-8808-080808080808"
               }
            ]
         }
      },
      {
         "resource":{
            "id":"0b0b0b0b-0b0b-4b0b-8b0b-0b0b0b0b0b0b",
            "resourceType":"Location",
            "address":{
               "country":"US",
               "line":[
                  "1004 Healthcare Drive"
               ],
               "city":"Portland",
               "state":"OR"
            }
         }
      },
      {
         "resource":{
            "name":[
               {
                  "use":"usual",
                  "family":"Primary",
                  "given":[
                     "Patricia"
                  ]
               }
            ],
            "id":"0c0c0c0c-0c0c-4c0c-8c0c-0c0c0c0c0c0c",
            "resourceType":"Practitioner"
         }
      },
      {
         "resource":{
            "telecom":[
               {
                  "value":"tel: +1(555)555-5000",
                  "system":"phone"
               }
            ],
            "address":[
               {
                  "country":"US",
                  "line":[
                     "1004 Health Drive"
                  ],
                  "city":"Portland",
                  "state":"OR"
               }
            ],
            "id":"0d0d0d0d-0d0d-4d0d-8d0d-0d0d0d0d0d0d",
            "resourceType":"Organization",
            "identifier":[
               {
                  "system":"urn:oid:1.2.16.840.1.113883.4.6",
                  "value":"219BX"
               }
            ],
            "name":"The DoctorsTogether Physician Group"
         }
      },
      {
         "resource":{
            "organization":{
               "reference":"Organization/0d0d0d0d-0d0d-4d0d-8d0d-0d0d0d0d0d0d"
            },
            "identifier":[
               {
                  "system":"urn:oid:2.16.840.1.113883.4.6",
                  "value":"5555555555"
               }
            ],
            "resourceType":"PractitionerRole",
            "id":"0a0a0a0a-0a0a-4a0a-8a0a-0a0a0a0a0a0a",
            "code":[
               {
                  "coding":[
                     {
                        "code":"207QA0505X",
                        "display":"Adult Medicine",
                        "system":"urn:oid:2.16.840.1.113883.6.101"
                     }
                  ]
               }
            ],
            "telecom":[
               {
                  "system":"phone",
                  "value":"tel:+1(555)555-1004"
               }
            ],
            "location":[
               {
                  "reference":"Location/0b0b0b0b-0b0b-4b0b-8b0b-0b0b0b0b0b0b"
               }
            ],
            "practitioner":{
               "reference":"Practitioner/0c0c0c0c-0c0c-4c0c-8c0c-0c0c0c0c0c0c"
            }
         }
      },
      {
         "resource":{
            "address":[
               {
                  "city":"Portland",
                  "state":"OR",
                  "country":"US",
                  "line":[
                     "1007 Health Drive"
                  ]
               }
            ],
            "id":"0e0e0e0e-0e0e-4e0e-8e0e-0e0e0e0e0e0e",
            "resourceType":"Organization",
            "identifier":[
               {
                  "value":"219BX",
                  "system":"urn:oid:2.16.840.1.113883.4.6"
               }
            ],
            "name":"The DoctorsTogether Physician Group",
            "telecom":[
               {
                  "system":"phone",
                  "value":"tel: +1(555)555-5000"
               }
            ]
         }
      },
      {
         "resource":{
            "identifier":[
               {
                  "value":"444222222",
                  "system":"urn:oid:2.16.840.1.113883.4.1"
               }
            ],
            "maritalStatus":{
               "coding":[
                  {
                     "display":"Married",
                     "system":"urn:oid:2.16.840.1.113883.5.2",
                     "code":"M"
                  }
               ]
            },
            "generalPractitioner":[
               {
                  "reference":"PractitionerRole/0a0a0a0a-0a0a-4a0a-8a0a-0a0a0a0a0a0a"
               }
            ],
            "address":[
               {
                  "line":[
                     "2222 Home Street"
                  ],
                  "city":"Beaverton",
                  "state":"OR",
                  "country":"US",
                  "use":"home"
               }
            ],
            "telecom":[
               {
                  "value":"tel:+1(555)555-2003",
                  "system":"phone"
               }
            ],
            "contact":[
               {
                  "telecom":[
                     {
                        "system":"phone",
                        "value":"tel:+1(555)555-2008"
                     }
                  ],
                  "address":{
                     "city":"Beaverton",
                     "state":"OR",
                     "country":"US",
                     "use":"home",
                     "line":[
                        "2222 Home Street"
                     ]
                  },
                  "name":{
                     "family":"Betterhalf",
                     "given":[
                        "Boris"
                     ],
                     "use":"usual"
                  },
                  "relationship":[
                     {
                        "coding":[
                           {
                              "code":"POWATT",
                              "display":"Power of Attorney",
                              "system":"urn:oid:2.16.840.1.113883.1.11.19830"
                           }
                        ]
                     }
                  ]
               }
            ],
            "name":[
               {
                  "given":[
                     "Eve"
                  ],
                  "use":"usual"
               },
               {
                  "given":[
                     "Eve"
                  ],
                  "use":"usual"
               }
            ],
            "gender":"female",
            "managingOrganization":{
               "reference":"Organization/0e0e0e0e-0e0e-4e0e-8e0e-0e0e0e0e0e0e"
            },
            "extension":[
               {
                  "url":"http://hl7.org/fhir/us/core/StructureDefinition/us-core-race",
                  "extension":[
                     {
                        "url":"ombCategory",
                        "valueCoding":{
                           "system":"urn:oid:2.16.840.1.113883.6.238",
                           "code":"2106-3",
                           "display":"White"
                        }
                     }
                  ]
               },
               {
                  "url":"http://hl7.org/fhir/us/core/StructureDefinition/us-core-ethnicity",
                  "extension":[
                     {
                        "valueCoding":{
                           "system":"urn:oid:2.16.840.1.113883.6.238",
                           "code":"2186-5",
                           "display":"Not Hispanic or Latino"
                        },
                        "url":"ombCategory"
                     }
                  ]
               },
               {
                  "url":"http://hl7.org/fhir/StructureDefinition/patient-religion",
                  "extension":[
                     {
                        "valueCodeableConcept":{
                           "coding":[
                              {
                                 "code":"1013",
                                 "display":"Christian (non-Catholic, non-specific)",
                                 "system":"urn:oid:2.16.840.1.113883.5.1076"
                              }
                           ]
                        },
                        "url":"http://hl7.org/fhir/StructureDefinition/patient-religion"
                     }
                  ]
               },
               {
                  "extension":[
                     {
                        "url":"http://hl7.org/fhir/StructureDefinition/patient-birthPlace",
                        "valueAddress":{
                           "state":"OR",
                           "country":"US",
                           "line":[
                              "4444 Home Street"
                           ],
                           "city":"Beaverton"
                        }
                     }
                  ],
                  "url":"http://hl7.org/fhir/StructureDefinition/patient-birthPlace"
               }
            ],
            "resourceType":"Patient",
            "id":"0f0f0f0f-0f0f-4f0f-8f0f-0f0f0f0f0f0f",
            "communication":[
               {
                  "language":{
                     "coding":[
                        {
                           "code":"en",
                           "system":"urn:oid:"
                        }
                     ]
                  },
                  "preferred":true
               }
            ],
            "birthDate":"1975-05-01"
         }
      },
      {
         "resource":{
            "id":"10101010-1010-4010-9010-101010101010",
            "resourceType":"Organization",
            "identifier":[
               {
                  "value":"321CX",
                  "system":"urn:oid:2.16.840.1.113883.4.6"
               }
            ],
            "name":"Good Health HIE",
            "telecom":[
               {
                  "system":"phone",
                  "value":"tel:+1(555)555-1009"
               }
            ],
            "address":[
               {
                  "city":"Portland",
                  "state":"OR",
                  "country":"US",
                  "line":[
                     "1009 Healthcare Drive"
                  ]
               }
            ]
         }
      },
      {
         "resource":{
            "identifier":[
               {
                  "system":"urn:oid:d42ebf70-5c89-11db-b0de-0855200c9a66"
               }
            ],
            "deceasedBoolean":true,
            "relationship":{
               "coding":[
                  {
                     "display":"Father",
                     "system":"urn:oid:2.16.840.1.113883.5.111",
                     "code":"FTH"
                  }
               ]
            },
            "id":"11111111-1111-4111-9111-111111111111",
            "condition":[
               {
                  "contributedToDeath":true,
                  "code":{
                     "coding":[
                        {
                           "code":"22298006",
                           "display":"Myocardial infarction",
                           "system":"urn:oid:2.16.840.1.113883.6.96"
                        }
                     ]
                  },
                  "onsetAge":{
                     "code":"a",
                     "unit":"yr",
                     "system":"http://unitsofmeasure.org",
                     "value":57
                  },
                  "outcome":{
                     "coding":[
                        {
                           "display":"Dead",
                           "system":"urn:oid:2.16.840.1.113883.6.96",
                           "code":"419099009"
                        }
                     ]
                  }
               },
               {
                  "onsetAge":{
                     "system":"http://unitsofmeasure.org",
                     "value":40,
                     "code":"a",
                     "unit":"yr"
                  },
                  "contributedToDeath":false,
                  "code":{
                     "coding":[
                        {
                           "code":"44054006",
                           "display":"Diabetes mellitus type 2",
                           "system":"urn:oid:2.16.840.1.113883.6.96"
                        }
                     ]
                  }
               }
            ],
            "patient":{
               "reference":"Patient/0f0f0f0f-0f0f-4f0f-8f0f-0f0f0f0f0f0f"
            },
            "bornDate":"1910-01-01",
            "sex":{
               "coding":[
                  {
                     "display":"Male",
                     "system":"urn:oid:2.16.840.1.113883.1.11.1",
                     "code":"M"
                  }
               ]
            },
            "resourceType":"FamilyMemberHistory",
            "status":"completed"
         }
      },
      {
         "resource":{
            "resourceType":"PractitionerRole",
            "id":"13131313-1313-4313-9313-131313131313",
            "code":[
               {
                  "coding":[
                     {
                        "code":"207QA0505X",
                        "display":"Adult Medicine",
                        "system":"urn:oid:2.16.840.1.113883.6.101"
                     }
                  ]
               }
            ],
            "identifier":[
               {
                  "system":"urn:oid:2.16.840.1.113883.4.6",
                  "value":"555555555"
               }
            ]
         }
      },
      {
         "resource":{
            "resourceType":"PractitionerRole",
            "id":"15151515-1515-4515-9515-151515151515",
            "code":[
               {
                  "coding":[
                     {
                        "system":"urn:oid:2.16.840.1.113883.6.101",
                        "code":"207QA0505X",
                        "display":"Adult Medicine"
                     }
                  ]
               }
            ],
            "identifier":[
               {
                  "value":"555555555",
                  "system":"urn:oid:2.16.840.1.113883.4.6"
               }
            ]
         }
      },
      {
         "resource":{
            "resourceType":"PractitionerRole",
            "id":"17171717-1717-4717-9717-171717171717",
            "code":[
               {
                  "coding":[
                     {
                        "system":"urn:oid:2.16.840.1.113883.6.101",
                        "code":"207QA0505X",
                        "display":"Adult Medicine"
                     }
                  ]
               }
            ],
            "identifier":[
               {
                  "system":"urn:oid:2.16.840.1.113883.4.6",
                  "value":"555555555"
               }
            ]
         }
      },
      {
         "resource":{
            "id":"19191919-1919-4919-9919-191919191919",
            "code":[
               {
                  "coding":[
                     {
                        "code":"207QA0505X",
                        "display":"Adult Medicine",
                        "system":"urn:oid:2.16.840.1.113883.6.101"
                     }
                  ]
               }
            ],
            "identifier":[
               {
                  "value":"555555555",
                  "system":"urn:oid:2.16.840.1.113883.4.6"
               }
            ],
            "resourceType":"PractitionerRole"
         }
      },
      {
         "resource":{
            "id":"1b1b1b1b-1b1b-4b1b-9b1b-1b1b1b1b1b1b",
            "code":[
               {
                  "coding":[
                     {
                        "code":"207QA0505X",
                        "display":"Adult Medicine",
                        "system":"urn:oid:2.16.840.1.113883.6.101"
                     }
                  ]
               }
            ],
            "identifier":[
               {
                  "value":"555555555",
                  "system":"urn:oid:2.16.840.1.113883.4.6"
               }
            ],
            "resourceType":"PractitionerRole"
         }
      },
      {
         "resource":{
            "resourceType":"PractitionerRole",
            "id":"1d1d1d1d-1d1d-4d1d-9d1d-1d1d1d1d1d1d",
            "code":[
               {
                  "coding":[
                     {
                        "display":"Adult Medicine",
                        "system":"urn:oid:2.16.840.1.113883.6.101",
                        "code":"207QA0505X"
                     }
                  ]
               }
            ],
            "identifier":[
               {
                  "system":"urn:oid:2.16.840.1.113883.4.6",
                  "value":"555555555"
               }
            ]
         }
      },
      {
         "resource":{
            "identifier":[
               {
                  "system":"urn:oid:2.16.840.1.113883.4.6",
                  "value":"555555555"
               }
            ],
            "resourceType":"PractitionerRole",
            "id":"1f1f1f1f-1f1f-4f1f-9f1f-1f1f1f1f1f1f",
            "code":[
               {
                  "coding":[
                     {
                        "code":"207QA0505X",
                        "display":"Adult Medicine",
                        "system":"urn:oid:2.16.840.1.113883.6.101"
                     }
                  ]
               }
            ]
         }
      },
      {
         "resource":{
            "resourceType":"PractitionerRole",
            "id":"21212121-2121-4121-a121-212121212121",
            "code":[
               {
                  "coding":[
                     {
                        "system":"urn:oid:2.16.840.1.113883.6.101",
                        "code":"207QA0505X",
                        "display":"Adult Medicine"
                     }
                  ]
               }
            ],
            "identifier":[
               {
                  "system":"urn:oid:2.16.840.1.113883.4.6",
                  "value":"555555555"
               }
            ]
         }
      },
      {
         "resource":{
            "effectiveDateTime":"2012-09-10T00:00:00+09:00",
            "identifier":[
               {
                  "system":"urn:oid:ed9589fd-fda0-41f7-a3d0-dc537554f5c2"
               }
            ],
            "performer":[
               {
                  "reference":"PractitionerRole/13131313-1313-4313-9313-131313131313"
               }
            ],
            "resourceType":"Observation",
            "id":"12121212-1212-4212-9212-121212121212",
            "subject":{
               "reference":"Patient/0f0f0f0f-0f0f-4f0f-8f0f-0f0f0f0f0f0f"
            },
            "code":{
               "coding":[
                  {
                     "code":"8302-2",
                     "display":"Height",
                     "system":"urn:oid:2.16.840.1.113883.6.1"
                  }
               ]
            },
            "interpretation":[
               {
                  "coding":[
                     {
                        "code":"N",
                        "system":"urn:oid:2.16.840.1.113883.5.83"
                     }
                  ]
               }
            ],
            "issued":"2008-09-10T11:45:00.109910Z",
            "component":[
               {
                  "valueQuantity":{
                     "value":177,
                     "unit":"cm"
                  },
                  "code":{
                     "coding":[
                        {
                           "code":"8302-2",
                           "display":"Height",
                           "system":"urn:oid:2.16.840.1.113883.6.1"
                        }
                     ]
                  }
               }
            ],
            "status":"final"
         }
      },
      {
         "resource":{
            "code":{
               "coding":[
                  {
                     "code":"3141-9",
                     "display":"Patient Body Weight - Measured",
                     "system":"urn:oid:2.16.840.1.113883.6.1"
                  }
               ]
            },
            "resourceType":"Observation",
            "subject":{
               "reference":"Patient/0f0f0f0f-0f0f-4f0f-8f0f-0f0f0f0f0f0f"
            },
            "status":"final",
            "component":[
               {
                  "valueQuantity":{
                     "value":86,
                     "unit":"kg"
                  },
                  "code":{
                     "coding":[
                        {
                           "code":"3141-9",
                           "display":"Patient Body Weight - Measured",
                           "system":"urn:oid:2.16.840.1.113883.6.1"
                        }
                     ]
                  }
               }
            ],
            "performer":[
               {
                  "reference":"PractitionerRole/15151515-1515-4515-9515-151515151515"
               }
            ],
            "effectiveDateTime":"2012-09-10T00:00:00+09:00",
            "id":"14141414-1414-4414-9414-141414141414",
            "interpretation":[
               {
                  "coding":[
                     {
                        "system":"urn:oid:2.16.840.1.113883.5.83",
                        "code":"N"
                     }
                  ]
               }
            ],
            "identifier":[
               {
                  "system":"urn:oid:f4e729e2-a97f-4a7e-8e23-c92f9b6b55cf"
               }
            ],
            "issued":"2008-09-10T11:45:00.109910Z"
         }
      },
      {
         "resource":{
            "code":{
               "coding":[
                  {
                     "display":"Intravascular Systolic",
                     "system":"urn:oid:2.16.840.1.113883.6.1",
                     "code":"8480-6"
                  }
               ]
            },
            "issued":"2008-09-10T11:45:00.109910Z",
            "interpretation":[
               {
                  "coding":[
                     {
                        "system":"urn:oid:2.16.840.1.113883.5.83",
                        "code":"N"
                     }
                  ]
               }
            ],
            "effectiveDateTime":"2012-09-10T00:00:00+09:00",
            "status":"final",
            "component":[
               {
                  "valueQuantity":{
                     "value":132,
                     "unit":"mm[Hg]"
                  },
                  "code":{
                     "coding":[
                        {
                           "code":"8480-6",
                           "display":"Intravascular Systolic",
                           "system":"urn:oid:2.16.840.1.113883.6.1"
                        }
                     ]
                  }
               }
            ],
            "identifier":[
               {
                  "system":"urn:oid:a0e39c70-9674-4b2a-9837-cdf74200d8d5"
               }
            ],
            "performer":[
               {
                  "reference":"PractitionerRole/17171717-1717-4717-9717-171717171717"
               }
            ],
            "resourceType":"Observation",
            "id":"16161616-1616-4616-9616-161616161616",
            "subject":{
               "reference":"Patient/0f0f0f0f-0f0f-4f0f-8f0f-0f0f0f0f0f0f"
            }
         }
      },
      {
         "resource":{
            "status":"final",
            "performer":[
               {
                  "reference":"PractitionerRole/19191919-1919-4919-9919-191919191919"
               }
            ],
            "code":{
               "coding":[
                  {
                     "display":"BP Diastolic",
                     "system":"urn:oid:2.16.840.1.113883.6.1",
                     "code":"8462-4"
                  }
               ]
            },
            "resourceType":"Observation",
            "issued":"2008-09-01T09:15:00.1991Z",
            "subject":{
               "reference":"Patient/0f0f0f0f-0f0f-4f0f-8f0f-0f0f0f0f0f0f"
            },
            "interpretation":[
               {
                  "coding":[
                     {
                        "code":"N",
                        "system":"urn:oid:2.16.840.1.113883.5.83"
                     }
                  ]
               }
            ],
            "identifier":[
               {
                  "system":"urn:oid:1c2748b7-e440-41ba-bc01-dde97d84a036"
               }
            ],
            "id":"18181818-1818-4818-9818-181818181818",
            "effectiveDateTime":"2012-09-10T00:00:00+09:00",
            "component":[
               {
                  "code":{
                     "coding":[
                        {
                           "display":"BP Diastolic",
                           "system":"urn:oid:2.16.840.1.113883.6.1",
                           "code":"8462-4"
                        }
                     ]
                  },
                  "valueQuantity":{
                     "unit":"mm[Hg]",
                     "value":88
                  }
               }
            ]
         }
      },
      {
         "resource":{
            "identifier":[
               {
                  "system":"urn:oid:05c047cd-28c3-41cd-be6c-56f8cc0c3f2f"
               }
            ],
            "subject":{
               "reference":"Patient/0f0f0f0f-0f0f-4f0f-8f0f-0f0f0f0f0f0f"
            },
            "component":[
               {
                  "code":{
                     "coding":[
                        {
                           "display":"Height",
                           "system":"urn:oid:2.16.840.1.113883.6.1",
                           "code":"8302-2"
                        }
                     ]
                  },
                  "valueQuantity":{
                     "unit":"cm",
                     "value":177
                  }
               }
            ],
            "status":"final",
            "performer":[
               {
                  "reference":"PractitionerRole/1b1b1b1b-1b1b-4b1b-9b1b-1b1b1b1b1b1b"
               }
            ],
            "interpretation":[
               {
                  "coding":[
                     {
                        "system":"urn:oid:2.16.840.1.113883.5.83",
                        "code":"N"
                     }
                  ]
               }
            ],
            "id":"1a1a1a1a-1a1a-4a1a-9a1a-1a1a1a1a1a1a",
            "resourceType":"Observation",
            "effectiveDateTime":"2011-09-01T00:00:00+09:00",
            "code":{
               "coding":[
                  {
                     "system":"urn:oid:2.16.840.1.113883.6.1",
                     "code":"8302-2",
                     "display":"Height"
                  }
               ]
            },
            "issued":"2008-09-01T09:15:00.1991Z"
         }
      },
      {
         "resource":{
            "issued":"2008-09-01T09:15:00.1991Z",
            "status":"final",
            "identifier":[
               {
                  "system":"urn:oid:21b0f3d5-7d07-4f4f-ad7e-c33dc2ca3835"
               }
            ],
            "subject":{
               "reference":"Patient/0f0f0f0f-0f0f-4f0f-8f0f-0f0f0f0f0f0f"
            },
            "id":"1c1c1c1c-1c1c-4c1c-9c1c-1c1c1c1c1c1c",
            "performer":[
               {
                  "reference":"PractitionerRole/1d1d1d1d-1d1d-4d1d-9d1d-1d1d1d1d1d1d"
               }
            ],
            "interpretation":[
               {
                  "coding":[
                     {
                        "code":"N",
                        "system":"urn:oid:2.16.840.1.113883.5.83"
                     }
                  ]
               }
            ],
            "resourceType":"Observation",
            "component":[
               {
                  "valueQuantity":{
                     "unit":"kg",
                     "value":88
                  },
                  "code":{
                     "coding":[
                        {
                           "display":"Patient Body Weight - Measured",
                           "system":"urn:oid:2.16.840.1.113883.6.1",
                           "code":"3141-9"
                        }
                     ]
                  }
               }
            ],
            "code":{
               "coding":[
                  {
                     "display":"Patient Body Weight - Measured",
                     "system":"urn:oid:2.16.840.1.113883.6.1",
                     "code":"3141-9"
                  }
               ]
            },
            "effectiveDateTime":"2011-09-01T00:00:00+09:00"
         }
      },
      {
         "resource":{
            "identifier":[
               {
                  "system":"urn:oid:b046c35a-59c7-4215-ae09-9a8409a30b21"
               }
            ],
            "performer":[
               {
                  "reference":"PractitionerRole/1f1f1f1f-1f1f-4f1f-9f1f-1f1f1f1f1f1f"
               }
            ],
            "interpretation":[
               {
                  "coding":[
                     {
                        "system":"urn:oid:2.16.840.1.113883.5.83",
                        "code":"N"
                     }
                  ]
               }
            ],
            "issued":"2008-09-01T09:15:00.1991Z",
            "id":"1e1e1e1e-1e1e-4e1e-9e1e-1e1e1e1e1e1e",
            "subject":{
               "reference":"Patient/0f0f0f0f-0f0f-4f0f-8f0f-0f0f0f0f0f0f"
            },
            "code":{
               "coding":[
                  {
                     "system":"urn:oid:2.16.840.1.113883.6.1",
                     "code":"8480-6",
                     "display":"BP Systolic"
                  }
               ]
            },
            "component":[
               {
                  "valueQuantity":{
                     "unit":"mm[Hg]",
                     "value":128
                  },
                  "code":{
                     "coding":[
                        {
                           "system":"urn:oid:2.16.840.1.113883.6.1",
                           "code":"8480-6",
                           "display":"BP Systolic"
                        }
                     ]
                  }
               }
            ],
            "effectiveDateTime":"2011-09-01T00:00:00+09:00",
            "status":"final",
            "resourceType":"Observation"
         }
      },
      {
         "resource":{
            "component":[
               {
                  "valueQuantity":{
                     "unit":"mm[Hg]",
                     "value":80
                  },
                  "code":{
                     "coding":[
                        {
                           "display":"BP Diastolic",
                           "system":"urn:oid:2.16.840.1.113883.6.1",
                           "code":"8462-4"
                        }
                     ]
                  }
               }
            ],
            "effectiveDateTime":"2011-09-01T00:00:00+09:00",
            "interpretation":[
               {
                  "coding":[
                     {
                        "system":"urn:oid:2.16.840.1.113883.5.83",
                        "code":"N"
                     }
                  ]
               }
            ],
            "code":{
               "coding":[
                  {
                     "system":"urn:oid:2.16.840.1.113883.6.1",
                     "code":"8462-4",
                     "display":"BP Diastolic"
                  }
               ]
            },
            "id":"20202020-2020-4020-a020-202020202020",
            "status":"final",
            "subject":{
               "reference":"Patient/0f0f0f0f-0f0f-4f0f-8f0f-0f0f0f0f0f0f"
            },
            "resourceType":"Observation",
            "identifier":[
               {
                  "system":"urn:oid:44f54e66-fb4b-4ee5-9ced-9574ef307a23"
               }
            ],
            "issued":"2008-09-01T09:15:00.1991Z",
            "performer":[
               {
                  "reference":"PractitionerRole/21212121-2121-4121-a121-212121212121"
               }
            ]
         }
      },
      {
         "resource":{
            "identifier":[
               {
                  "value":"555555555",
                  "system":"urn:oid:2.16.840.1.113883.4.6"
               }
            ],
            "resourceType":"PractitionerRole",
            "id":"23232323-2323-4323-a323-232323232323",
            "code":[
               {
                  "coding":[
                     {
                        "system":"urn:oid:2.16.840.1.113883.6.101",
                        "code":"207QA0505X",
                        "display":"Adult Medicine"
                     }
                  ]
               }
            ]
         }
      },
      {
         "resource":{
            "code":[
               {
                  "coding":[
                     {
                        "code":"207QA0505X",
                        "display":"Adult Medicine",
                        "system":"urn:oid:2.16.840.1.113883.6.101"
                     }
                  ]
               }
            ],
            "identifier":[
               {
                  "value":"555555555",
                  "system":"urn:oid:2.16.840.1.113883.4.6"
               }
            ],
            "resourceType":"PractitionerRole",
            "id":"25252525-2525-4525-a525-252525252525"
         }
      },
      {
         "resource":{
            "identifier":[
               {
                  "system":"urn:oid:2.16.840.1.113883.4.6",
                  "value":"555555555"
               }
            ],
            "resourceType":"PractitionerRole",
            "id":"27272727-2727-4727-a727-272727272727",
            "code":[
               {
                  "coding":[
                     {
                        "code":"207QA0505X",
                        "display":"Adult Medicine",
                        "system":"urn:oid:2.16.840.1.113883.6.101"
                     }
                  ]
               }
            ]
         }
      },
      {
         "resource":{
            "status":"final",
            "performer":[
               {
                  "reference":"PractitionerRole/23232323-2323-4323-a323-232323232323"
               }
            ],
            "resourceType":"Observation",
            "effectiveDateTime":"2012-09-10T00:00:00+09:00",
            "identifier":[
               {
                  "value":"123456789",
                  "system":"urn:oid:2.16.840.1.113883.19"
               }
            ],
            "subject":{
               "reference":"Patient/0f0f0f0f-0f0f-4f0f-8f0f-0f0f0f0f0f0f"
            },
            "issued":"2008-09-10T11:45:00.109910Z",
            "component":[
               {
                  "valueCodeableConcept":{
                     "coding":[
                        {
                           "code":"8517006",
                           "display":"Former smoker",
                           "system":"urn:oid:2.16.840.1.113883.6.96"
                        }
                     ]
                  },
                  "code":{
                     "coding":[
                        {
                           "system":"urn:oid:2.16.840.1.113883.6.1",
                           "code":"72166-2",
                           "display":"Tobacco smoking status NHIS"
                        }
                     ]
                  }
               }
            ],
            "id":"22222222-2222-4222-a222-222222222222",
            "code":{
               "coding":[
                  {
                     "code":"72166-2",
                     "display":"Tobacco smoking status NHIS",
                     "system":"urn:oid:2.16.840.1.113883.6.1"
                  }
               ]
            }
         }
      },
      {
         "resource":{
            "subject":{
               "reference":"Patient/0f0f0f0f-0f0f-4f0f-8f0f-0f0f0f0f0f0f"
            },
            "effectivePeriod":{
               "end":"2011-02-15T00:00:00+02:00",
               "start":"2009-02-14T00:00:00+02:00"
            },
            "performer":[
               {
                  "reference":"PractitionerRole/25252525-2525-4525-a525-252525252525"
               }
            ],
            "status":"final",
            "issued":"2008-09-10T11:45:00.109910Z",
            "resourceType":"Observation",
            "identifier":[
               {
                  "system":"urn:oid:45efb604-7049-4a2e-ad33-d38556c9636c"
               }
            ],
            "code":{
               "coding":[
                  {
                     "code":"11367-0",
                     "display":"History of tobacco use",
                     "system":"urn:oid:2.16.840.1.113883.6.1"
                  }
               ]
            },
            "component":[
               {
                  "code":{
                     "coding":[
                        {
                           "system":"urn:oid:2.16.840.1.113883.6.1",
                           "code":"11367-0",
                           "display":"History of tobacco use"
                        }
                     ]
                  },
                  "valueCodeableConcept":{
                     "coding":[
                        {
                           "display":"Moderate cigarette smoker, 10-19/day",
                           "system":"urn:oid:2.16.840.1.113883.6.96",
                           "code":"160604004"
                        }
                     ]
                  }
               }
            ],
            "id":"24242424-2424-4424-a424-242424242424"
         }
      },
      {
         "resource":{
            "status":"final",
            "id":"26262626-2626-4626-a626-262626262626",
            "subject":{
               "reference":"Patient/0f0f0f0f-0f0f-4f0f-8f0f-0f0f0f0f0f0f"
            },
            "resourceType":"Observation",
            "performer":[
               {
                  "reference":"PractitionerRole/27272727-2727-4727-a727-272727272727"
               }
            ],
            "code":{
               "coding":[
                  {
                     "code":"74013-4",
                     "display":"Alcoholic drinks per day",
                     "system":"urn:oid:2.16.840.1.113883.6.1"
                  }
               ]
            },
            "component":[
               {
                  "valueQuantity":{
                     "value":12
                  },
                  "code":{
                     "coding":[
                        {
                           "display":"Alcoholic drinks per day",
                           "system":"urn:oid:2.16.840.1.113883.6.1",
                           "code":"74013-4"
                        }
                     ]
                  }
               }
            ],
            "effectivePeriod":{
               "start":"2012-02-15T00:00:00+02:00"
            },
            "issued":"2008-09-10T11:45:00.109910Z",
            "identifier":[
               {
                  "system":"urn:oid:37f76c51-6411-4e1d-8a37-957fd49d2cef"
               }
            ]
         }
      },
      {
         "resource":{
            "resourceType":"PractitionerRole",
            "id":"29292929-2929-4929-a929-292929292929",
            "code":[
               {
                  "coding":[
                     {
                        "display":"General Physician",
                        "system":"urn:oid:2.16.840.1.113883.6.96",
                        "code":"59058001"
                     }
                  ]
               }
            ],
            "identifier":[
               {
                  "value":"333444555",
                  "system":"urn:oid:2.16.840.1.113883.4.6"
               }
            ]
         }
      },
      {
         "resource":{
            "resourceType":"Location",
            "type":[
               {
                  "coding":[
                     {
                        "code":"1160-1",
                        "display":"Urgent Care Center",
                        "system":"urn:oid:2.16.840.1.113883.6.259"
                     }
                  ]
               }
            ],
            "name":"Good Health Urgent Care",
            "telecom":[
               {
                  "value":"tel: +1(555)555-1030",
                  "system":"phone"
               }
            ],
            "address":{
               "country":"US",
               "line":[
                  "1007 Health Drive"
               ],
               "city":"Portland",
               "state":"OR"
            },
            "id":"2a2a2a2a-2a2a-4a2a-aa2a-2a2a2a2a2a2a"
         }
      },
      {
         "resource":{
            "status":"unknown",
            "id":"28282828-2828-4828-a828-282828282828",
            "identifier":[
               {
                  "system":"urn:oid:2a620155-9d11-439e-92b3-5d9815ff4de8"
               }
            ],
            "type":[
               {
                  "coding":[
                     {
                        "display":"Office outpatient visit 15 minutes",
                        "system":"urn:oid:2.16.840.1.113883.6.12",
                        "code":"99213"
                     }
                  ]
               }
            ],
            "participant":[
               {
                  "individual":{
                     "reference":"PractitionerRole/29292929-2929-4929-a929-292929292929"
                  }
               }
            ],
            "resourceType":"Encounter",
            "class":{
               "code":"99213",
               "display":"Office outpatient visit 15 minutes",
               "system":"urn:oid:2.16.840.1.113883.6.12"
            },
            "location":[
               {
                  "location":{
                     "reference":"Location/2a2a2a2a-2a2a-4a2a-aa2a-2a2a2a2a2a2a"
                  }
               }
            ],
            "subject":{
               "reference":"Patient/0f0f0f0f-0f0f-4f0f-8f0f-0f0f0f0f0f0f"
            }
         }
      },
      {
         "resource":{
            "id":"2c2c2c2c-2c2c-4c2c-ac2c-2c2c2c2c2c2c",
            "code":[
               {
                  "coding":[
                     {
                        "display":"Adult Medicine",
                        "system":"urn:oid:2.16.840.1.113883.6.101",
                        "code":"207QA0505X"
                     }
                  ]
               }
            ],
            "identifier":[
               {
                  "system":"urn:oid:2.16.840.1.113883.4.6",
                  "value":"555555555"
               }
            ],
            "resourceType":"PractitionerRole"
         }
      },
      {
         "resource":{
            "identifier":[
               {
                  "system":"urn:oid:742aee30-21c5-11e1-bfc2-0800200c9a66"
               }
            ],
            "type":{
               "coding":[
                  {
                     "display":"cane, device (physical object)",
                     "system":"urn:oid:2.16.840.1.113883.6.96",
                     "code":"87405001"
                  }
               ]
            },
            "resourceType":"Device",
            "id":"2d2d2d2d-2d2d-4d2d-ad2d-2d2d2d2d2d2d"
         }
      },
      {
         "resource":{
            "resourceType":"PractitionerRole",
            "id":"2f2f2f2f-2f2f-4f2f-af2f-2f2f2f2f2f2f",
            "code":[
               {
                  "coding":[
                     {
                        "display":"Adult Medicine",
                        "system":"urn:oid:2.16.840.1.113883.6.101",
                        "code":"207QA0505X"
                     }
                  ]
               }
            ],
            "identifier":[
               {
                  "system":"urn:oid:2.16.840.1.113883.4.6",
                  "value":"555555555"
               }
            ]
         }
      },
      {
         "resource":{
            "device":{
               "reference":"Device/2d2d2d2d-2d2d-4d2d-ad2d-2d2d2d2d2d2d"
            },
            "status":"final",
            "code":{
               "coding":[
                  {
                     "system":"urn:oid:2.16.840.1.113883.6.1",
                     "code":"54522-8",
                     "display":"Functional status"
                  }
               ]
            },
            "identifier":[
               {
                  "system":"urn:oid:b63a8636-cfff-4461-b018-40ba58ba8b32"
               }
            ],
            "subject":{
               "reference":"Patient/0f0f0f0f-0f0f-4f0f-8f0f-0f0f0f0f0f0f"
            },
            "resourceType":"Observation",
            "component":[
               {
                  "code":{
                     "coding":[
                        {
                           "code":"54522-8",
                           "display":"Functional status",
                           "system":"urn:oid:2.16.840.1.113883.6.1"
                        }
                     ]
                  },
                  "valueCodeableConcept":{
                     "coding":[
                        {
                           "code":"165245003",
                           "display":"Independent walking",
                           "system":"urn:oid:2.16.840.1.113883.6.96"
                        }
                     ]
                  }
               }
            ],
            "issued":"2008-07-06T11:45:00.6776Z",
            "performer":[
               {
                  "reference":"PractitionerRole/2c2c2c2c-2c2c-4c2c-ac2c-2c2c2c2c2c2c"
               }
            ],
            "id":"2b2b2b2b-2b2b-4b2b-ab2b-2b2b2b2b2b2b",
            "effectiveDateTime":"2013-03-11T00:00:00+03:00"
         }
      },
      {
         "resource":{
            "performer":[
               {
                  "reference":"PractitionerRole/2f2f2f2f-2f2f-4f2f-af2f-2f2f2f2f2f2f"
               }
            ],
            "component":[
               {
                  "valueCodeableConcept":{
                     "coding":[
                        {
                           "code":"371153006",
                           "display":"Independent",
                           "system":"urn:oid:2.16.840.1.113883.6.96"
                        }
                     ]
                  },
                  "code":{
                     "coding":[
                        {
                           "code":"46008-9",
                           "display":"Bathing",
                           "system":"urn:oid:2.16.840.1.113883.6.1"
                        }
                     ]
                  }
               }
            ],
            "id":"2e2e2e2e-2e2e-4e2e-ae2e-2e2e2e2e2e2e",
            "identifier":[
               {
                  "system":"urn:oid:c6b5a04b-2bf4-49d1-8336-636a3813df0a"
               }
            ],
            "effectiveDateTime":"2003-03-11T00:00:00+03:00",
            "status":"final",
            "resourceType":"Observation",
            "code":{
               "coding":[
                  {
                     "code":"46008-9",
                     "display":"Bathing",
                     "system":"urn:oid:2.16.840.1.113883.6.1"
                  }
               ]
            },
            "subject":{
               "reference":"Patient/0f0f0f0f-0f0f-4f0f-8f0f-0f0f0f0f0f0f"
            },
            "issued":"2008-07-06T11:48:00.6776Z"
         }
      },
      {
         "resource":{
            "id":"31313131-3131-4131-b131-313131313131",
            "code":[
               {
                  "coding":[
                     {
                        "system":"urn:oid:2.16.840.1.113883.6.101",
                        "code":"207QA0505X",
                        "display":"Adult Medicine"
                     }
                  ]
               }
            ],
            "identifier":[
               {
                  "system":"urn:oid:2.16.840.1.113883.4.6",
                  "value":"555555555"
               }
            ],
            "resourceType":"PractitionerRole"
         }
      },
      {
         "resource":{
            "id":"33333333-3333-4333-b333-333333333333",
            "code":[
               {
                  "coding":[
                     {
                        "system":"urn:oid:2.16.840.1.113883.6.101",
                        "code":"207QA0505X",
                        "display":"Adult Medicine"
                     }
                  ]
               }
            ],
            "identifier":[
               {
                  "system":"urn:oid:2.16.840.1.113883.4.6",
                  "value":"555555555"
               }
            ],
            "resourceType":"PractitionerRole"
         }
      },
      {
         "resource":{
            "identifier":[
               {
                  "value":"222334444",
                  "system":"urn:oid:2.16.840.1.113883.4.6"
               }
            ],
            "resourceType":"PractitionerRole",
            "id":"35353535-3535-4535-b535-353535353535",
            "code":[
               {
                  "coding":[
                     {
                        "display":"Adult Medicine",
                        "system":"urn:oid:2.16.840.1.113883.6.101",
                        "code":"207QA0505X"
                     }
                  ]
               }
            ]
         }
      },
      {
         "resource":{
            "identifier":[
               {
                  "value":"555555555",
                  "system":"urn:oid:2.16.840.1.113883.4.6"
               }
            ],
            "resourceType":"PractitionerRole",
            "id":"37373737-3737-4737-b737-373737373737",
            "code":[
               {
                  "coding":[
                     {
                        "system":"urn:oid:2.16.840.1.113883.6.101",
                        "code":"207QA0505X",
                        "display":"Adult Medicine"
                     }
                  ]
               }
            ]
         }
      },
      {
         "resource":{
            "clinicalStatus":{
               "coding":[
                  {
                     "system":"http://terminology.hl7.org/CodeSystem/condition-clinical",
                     "code":"active"
                  }
               ]
            },
            "resourceType":"Condition",
            "recordedDate":"2008-08-14T10:30:00+08:00",
            "code":{
               "coding":[
                  {
                     "display":"Pneumonia",
                     "system":"urn:oid:2.16.840.1.113883.6.96",
                     "code":"233604007"
                  }
               ]
            },
            "category":[
               {
                  "coding":[
                     {
                        "code":"75323-6",
                        "display":"Condition",
                        "system":"urn:oid:2.16.840.1.113883.6.1"
                     }
                  ]
               }
            ],
            "identifier":[
               {
                  "system":"urn:oid:ab1791b0-5c71-11db-b0de-0800200c9a66"
               }
            ],
            "asserter":{
               "reference":"PractitionerRole/31313131-3131-4131-b131-313131313131"
            },
            "subject":{
               "reference":"Patient/0f0f0f0f-0f0f-4f0f-8f0f-0f0f0f0f0f0f"
            },
            "id":"30303030-3030-4030-b030-303030303030",
            "onsetDateTime":"2013-07-03T00:00:00+07:00"
         }
      },
      {
         "resource":{
            "recordedDate":"2008-04-14T15:15:00+04:00",
            "subject":{
               "reference":"Patient/0f0f0f0f-0f0f-4f0f-8f0f-0f0f0f0f0f0f"
            },
            "clinicalStatus":{
               "coding":[
                  {
                     "system":"http://terminology.hl7.org/CodeSystem/condition-clinical",
                     "code":"active"
                  }
               ]
            },
            "identifier":[
               {
                  "system":"urn:oid:11d088a8-b957-401c-8ee0-3bd20a772fc0"
               }
            ],
            "asserter":{
               "reference":"PractitionerRole/33333333-3333-4333-b333-333333333333"
            },
            "code":{
               "coding":[
                  {
                     "system":"urn:oid:2.16.840.1.113883.6.96",
                     "code":"29857009",
                     "display":"Chest pain"
                  }
               ]
            },
            "onsetDateTime":"2007-04-14T00:00:00+04:00",
            "id":"32323232-3232-4232-b232-323232323232",
            "category":[
               {
                  "coding":[
                     {
                        "code":"75323-6",
                        "display":"Condition",
                        "system":"urn:oid:2.16.840.1.113883.6.1"
                     }
                  ]
               }
            ],
            "resourceType":"Condition"
         }
      },
      {
         "resource":{
            "clinicalStatus":{
               "coding":[
                  {
                     "system":"http://terminology.hl7.org/CodeSystem/condition-clinical",
                     "code":"active"
                  }
               ]
            },
            "onsetDateTime":"2007-04-17T00:00:00+04:00",
            "code":{
               "coding":[
                  {
                     "display":"Angina",
                     "system":"urn:oid:2.16.840.1.113883.6.96",
                     "code":"194828000"
                  }
               ]
            },
            "asserter":{
               "reference":"PractitionerRole/35353535-3535-4535-b535-353535353535"
            },
            "subject":{
               "reference":"Patient/0f0f0f0f-0f0f-4f0f-8f0f-0f0f0f0f0f0f"
            },
            "identifier":[
               {
                  "system":"urn:oid:4991db40-4c4f-41e8-9146-50c12d716424"
               }
            ],
            "id":"34343434-3434-4434-b434-343434343434",
            "recordedDate":"2008-04-17T15:15:00+04:00",
            "category":[
               {
                  "coding":[
                     {
                        "system":"urn:oid:2.16.840.1.113883.6.1",
                        "code":"75323-6",
                        "display":"Condition"
                     }
                  ]
               }
            ],
            "resourceType":"Condition"
         }
      },
      {
         "resource":{
            "id":"36363636-3636-4636-b636-363636363636",
            "code":{
               "coding":[
                  {
                     "code":"233604007",
                     "display":"Pneumonia",
                     "system":"urn:oid:2.16.840.1.113883.6.96"
                  }
               ]
            },
            "identifier":[
               {
                  "system":"urn:oid:10506b4d-c30a-4220-8bec-97bff9568fd1"
               }
            ],
            "recordedDate":"2008-03-16T10:30:00+03:00",
            "clinicalStatus":{
               "coding":[
                  {
                     "code":"active",
                     "system":"http://terminology.hl7.org/CodeSystem/condition-clinical"
                  }
               ]
            },
            "resourceType":"Condition",
            "onsetDateTime":"1998-03-10T00:00:00+03:00",
            "subject":{
               "reference":"Patient/0f0f0f0f-0f0f-4f0f-8f0f-0f0f0f0f0f0f"
            },
            "asserter":{
               "reference":"PractitionerRole/37373737-3737-4737-b737-373737373737"
            },
            "category":[
               {
                  "coding":[
                     {
                        "display":"Condition",
                        "system":"urn:oid:2.16.840.1.113883.6.1",
                        "code":"75323-6"
                     }
                  ]
               }
            ]
         }
      },
      {
         "resource":{
            "id":"3a3a3a3a-3a3a-4a3a-ba3a-3a3a3a3a3a3a",
            "resourceType":"Location",
            "address":{
               "country":"US",
               "line":[
                  "1001 Village Avenue"
               ],
               "city":"Portland",
               "state":"OR"
            }
         }
      },
      {
         "resource":{
            "resourceType":"Organization",
            "identifier":[
               {
                  "system":"urn:oid:2.16.840.1.113883.19.5.9999.1393"
               }
            ],
            "name":"Community Health and Hospitals",
            "telecom":[
               {
                  "value":"+1(555)555-5000",
                  "system":"phone"
               }
            ],
            "address":[
               {
                  "country":"US",
                  "line":[
                     "1001 Village Avenue"
                  ],
                  "city":"Portland",
                  "state":"OR"
               }
            ],
            "id":"3b3b3b3b-3b3b-4b3b-bb3b-3b3b3b3b3b3b"
         }
      },
      {
         "resource":{
            "identifier":[
               {
                  "value":"2981823",
                  "system":"urn:oid:2.16.840.1.113883.19.5.9999.456"
               }
            ],
            "resourceType":"PractitionerRole",
            "id":"39393939-3939-4939-b939-393939393939",
            "telecom":[
               {
                  "value":"+1(555)555-5000",
                  "system":"phone"
               }
            ],
            "location":[
               {
                  "reference":"Location/3a3a3a3a-3a3a-4a3a-ba3a-3a3a3a3a3a3a"
               }
            ],
            "organization":{
               "reference":"Organization/3b3b3b3b-3b3b-4b3b-bb3b-3b3b3b3b3b3b"
            }
         }
      },
      {
         "resource":{
            "performer":[
               {
                  "actor":{
                     "reference":"PractitionerRole/39393939-3939-4939-b939-393939393939"
                  }
               }
            ],
            "id":"38383838-3838-4838-b838-383838383838",
            "code":{
               "coding":[
                  {
                     "system":"urn:oid:2.16.840.1.113883.6.96",
                     "code":"73761001",
                     "display":"Colonoscopy"
                  }
               ]
            },
            "subject":{
               "reference":"Patient/0f0f0f0f-0f0f-4f0f-8f0f-0f0f0f0f0f0f"
            },
            "identifier":[
               {
                  "system":"urn:oid:d68b7e32-7810-4f5b-9cc2-acd54b0fd85d"
               }
            ],
            "bodySite":[
               {
                  "coding":[
                     {
                        "system":"urn:oid:2.16.840.1.113883.3.88.12.3221.8.9",
                        "code":"appropriate_code",
                        "display":"colon"
                     }
                  ]
               }
            ],
            "status":"completed",
            "resourceType":"Procedure",
            "performedDateTime":"2012-05-12T00:00:00+05:00"
         }
      },
      {
         "resource":{
            "resourceType":"PractitionerRole",
            "id":"3e3e3e3e-3e3e-4e3e-be3e-3e3e3e3e3e3e",
            "code":[
               {
                  "coding":[
                     {
                        "display":"Technician, Pathology",
                        "system":"urn:oid:2.16.840.1.113883.6.101",
                        "code":"246Q00000X"
                     }
                  ]
               }
            ],
            "identifier":[
               {
                  "value":"333444444",
                  "system":"urn:oid:2.16.840.1.113883.4.6"
               }
            ]
         }
      },
      {
         "resource":{
            "code":[
               {
                  "coding":[
                     {
                        "display":"Technician, Pathology",
                        "system":"urn:oid:2.16.840.1.113883.6.101",
                        "code":"246Q00000X"
                     }
                  ]
               }
            ],
            "identifier":[
               {
                  "value":"333444444",
                  "system":"urn:oid:2.16.840.1.113883.4.6"
               }
            ],
            "resourceType":"PractitionerRole",
            "id":"40404040-4040-4040-8040-404040404040"
         }
      },
      {
         "resource":{
            "id":"42424242-4242-4242-8242-424242424242",
            "code":[
               {
                  "coding":[
                     {
                        "display":"Technician, Pathology",
                        "system":"urn:oid:2.16.840.1.113883.6.101",
                        "code":"246Q00000X"
                     }
                  ]
               }
            ],
            "identifier":[
               {
                  "value":"333444444",
                  "system":"urn:oid:2.16.840.1.113883.4.6"
               }
            ],
            "resourceType":"PractitionerRole"
         }
      },
      {
         "resource":{
            "resourceType":"PractitionerRole",
            "id":"44444444-4444-4444-8444-444444444444",
            "code":[
               {
                  "coding":[
                     {
                        "system":"urn:oid:2.16.840.1.113883.6.101",
                        "code":"246Q00000X",
                        "display":"Technician, Pathology"
                     }
                  ]
               }
            ],
            "identifier":[
               {
                  "value":"333444444",
                  "system":"urn:oid:2.16.840.1.113883.4.6"
               }
            ]
         }
      },
      {
         "resource":{
            "resourceType":"PractitionerRole",
            "id":"46464646-4646-4646-8646-464646464646",
            "code":[
               {
                  "coding":[
                     {
                        "display":"Technician, Pathology",
                        "system":"urn:oid:2.16.840.1.113883.6.101",
                        "code":"246Q00000X"
                     }
                  ]
               }
            ],
            "identifier":[
               {
                  "value":"333444444",
                  "system":"urn:oid:2.16.840.1.113883.4.6"
               }
            ]
         }
      },
      {
         "resource":{
            "status":"final",
            "code":{
               "coding":[
                  {
                     "display":"Hemoglobin",
                     "system":"urn:oid:2.16.840.1.113883.6.1",
                     "code":"718-7"
                  }
               ]
            },
            "issued":"2008-03-19T08:30:00.193319Z",
            "interpretation":[
               {
                  "coding":[
                     {
                        "system":"urn:oid:2.16.840.1.113883.5.83",
                        "code":"N"
                     }
                  ]
               }
            ],
            "resourceType":"Observation",
            "performer":[
               {
                  "reference":"PractitionerRole/3e3e3e3e-3e3e-4e3e-be3e-3e3e3e3e3e3e"
               }
            ],
            "referenceRange":[
               {
                  "high":{
                     "unit":"g/dL",
                     "value":15.5
                  },
                  "low":{
                     "value":12,
                     "unit":"g/dL"
                  }
               }
            ],
            "effectiveDateTime":"2008-03-19T08:30:00+03:00",
            "subject":{
               "reference":"Patient/0f0f0f0f-0f0f-4f0f-8f0f-0f0f0f0f0f0f"
            },
            "id":"3d3d3d3d-3d3d-4d3d-bd3d-3d3d3d3d3d3d",
            "component":[
               {
                  "valueQuantity":{
                     "value":13.2,
                     "unit":"g/dL"
                  },
                  "code":{
                     "coding":[
                        {
                           "system":"urn:oid:2.16.840.1.113883.6.1",
                           "code":"718-7",
                           "display":"Hemoglobin"
                        }
                     ]
                  }
               }
            ],
            "identifier":[
               {
                  "system":"urn:oid:107c2dc0-67a5-11db-bd13-0800200c9a66"
               }
            ]
         }
      },
      {
         "resource":{
            "issued":"2008-03-19T08:30:00.193319Z",
            "identifier":[
               {
                  "system":"urn:oid:a69b3d60-2ffd-4440-958b-72b3335ff35f"
               }
            ],
            "effectiveDateTime":"2008-03-19T08:30:00+03:00",
            "subject":{
               "reference":"Patient/0f0f0f0f-0f0f-4f0f-8f0f-0f0f0f0f0f0f"
            },
            "resourceType":"Observation",
            "component":[
               {
                  "code":{
                     "coding":[
                        {
                           "code":"6690-2",
                           "display":"Leukocytes",
                           "system":"urn:oid:2.16.840.1.113883.6.1"
                        }
                     ]
                  },
                  "valueQuantity":{
                     "unit":"10*9/L",
                     "value":6.7
                  }
               }
            ],
            "referenceRange":[
               {
                  "low":{
                     "value":4.3,
                     "unit":"10*9/L"
                  },
                  "high":{
                     "unit":"10*9/L",
                     "value":10.8
                  }
               }
            ],
            "status":"final",
            "interpretation":[
               {
                  "coding":[
                     {
                        "system":"urn:oid:2.16.840.1.113883.5.83",
                        "code":"N"
                     }
                  ]
               }
            ],
            "code":{
               "coding":[
                  {
                     "display":"Leukocytes",
                     "system":"urn:oid:2.16.840.1.113883.6.1",
                     "code":"6690-2"
                  }
               ]
            },
            "performer":[
               {
                  "reference":"PractitionerRole/40404040-4040-4040-8040-404040404040"
               }
            ],
            "id":"3f3f3f3f-3f3f-4f3f-bf3f-3f3f3f3f3f3f"
         }
      },
      {
         "resource":{
            "resourceType":"Observation",
            "id":"41414141-4141-4141-8141-414141414141",
            "effectiveDateTime":"2008-03-19T08:30:00+03:00",
            "interpretation":[
               {
                  "coding":[
                     {
                        "system":"urn:oid:2.16.840.1.113883.5.83",
                        "code":"LX"
                     }
                  ]
               }
            ],
            "referenceRange":[
               {
                  "high":{
                     "unit":"10*9/L",
                     "value":350
                  },
                  "low":{
                     "value":150,
                     "unit":"10*9/L"
                  }
               }
            ],
            "identifier":[
               {
                  "system":"urn:oid:ef5c1c58-4665-4556-a8e8-6e720d82f572"
               }
            ],
            "issued":"2008-03-19T08:30:00.193319Z",
            "code":{
               "coding":[
                  {
                     "system":"urn:oid:2.16.840.1.113883.6.1",
                     "code":"777-3",
                     "display":"Platelets"
                  }
               ]
            },
            "subject":{
               "reference":"Patient/0f0f0f0f-0f0f-4f0f-8f0f-0f0f0f0f0f0f"
            },
            "component":[
               {
                  "code":{
                     "coding":[
                        {
                           "display":"Platelets",
                           "system":"urn:oid:2.16.840.1.113883.6.1",
                           "code":"777-3"
                        }
                     ]
                  },
                  "valueQuantity":{
                     "unit":"10*9/L",
                     "value":123
                  }
               }
            ],
            "status":"final",
            "performer":[
               {
                  "reference":"PractitionerRole/42424242-4242-4242-8242-424242424242"
               }
            ]
         }
      },
      {
         "resource":{
            "subject":{
               "reference":"Patient/0f0f0f0f-0f0f-4f0f-8f0f-0f0f0f0f0f0f"
            },
            "referenceRange":[
               {
                  "low":{
                     "value":34.9,
                     "unit":"%"
                  },
                  "high":{
                     "unit":"%",
                     "value":44.5
                  }
               }
            ],
            "status":"final",
            "performer":[
               {
                  "reference":"PractitionerRole/44444444-4444-4444-8444-444444444444"
               }
            ],
            "effectiveDateTime":"2008-03-19T08:30:00+03:00",
            "code":{
               "coding":[
                  {
                     "display":"Hematocrit",
                     "system":"urn:oid:2.16.840.1.113883.6.1",
                     "code":"4544-3"
                  }
               ]
            },
            "identifier":[
               {
                  "system":"urn:oid:7c0704bb-9c40-41b5-9c7d-26b2d59e234f"
               }
            ],
            "interpretation":[
               {
                  "coding":[
                     {
                        "code":"LX",
                        "system":"urn:oid:2.16.840.1.113883.5.83"
                     }
                  ]
               }
            ],
            "id":"43434343-4343-4343-8343-434343434343",
            "issued":"2008-03-19T08:30:00.193319Z",
            "component":[
               {
                  "code":{
                     "coding":[
                        {
                           "code":"4544-3",
                           "display":"Hematocrit",
                           "system":"urn:oid:2.16.840.1.113883.6.1"
                        }
                     ]
                  },
                  "valueQuantity":{
                     "value":35.3,
                     "unit":"%"
                  }
               }
            ],
            "resourceType":"Observation"
         }
      },
      {
         "resource":{
            "id":"45454545-4545-4545-8545-454545454545",
            "effectiveDateTime":"2008-03-19T08:30:00+03:00",
            "issued":"2008-03-19T08:30:00.193319Z",
            "code":{
               "coding":[
                  {
                     "display":"Erythrocytes",
                     "system":"urn:oid:2.16.840.1.113883.6.1",
                     "code":"789-8"
                  }
               ]
            },
            "referenceRange":[
               {
                  "high":{
                     "unit":"10*12/L",
                     "value":5.03
                  },
                  "low":{
                     "value":3.9,
                     "unit":"10*12/L"
                  }
               }
            ],
            "performer":[
               {
                  "reference":"PractitionerRole/46464646-4646-4646-8646-464646464646"
               }
            ],
            "status":"final",
            "resourceType":"Observation",
            "interpretation":[
               {
                  "coding":[
                     {
                        "system":"urn:oid:2.16.840.1.113883.5.83",
                        "code":"N"
                     }
                  ]
               }
            ],
            "identifier":[
               {
                  "system":"urn:oid:bccd6fc9-0c7f-455e-8616-923ed0d04d09"
               }
            ],
            "subject":{
               "reference":"Patient/0f0f0f0f-0f0f-4f0f-8f0f-0f0f0f0f0f0f"
            },
            "component":[
               {
                  "code":{
                     "coding":[
                        {
                           "code":"789-8",
                           "display":"Erythrocytes",
                           "system":"urn:oid:2.16.840.1.113883.6.1"
                        }
                     ]
                  },
                  "valueQuantity":{
                     "value":4.21,
                     "unit":"10*12/L"
                  }
               }
            ]
         }
      },
      {
         "resource":{
            "component":[
               {
                  "code":{
                     "coding":[
                        {
                           "system":"urn:oid:2.16.840.1.113883.6.1",
                           "code":"3094-0",
                           "display":"Urea nitrogen, Serum"
                        }
                     ]
                  }
               }
            ],
            "subject":{
               "reference":"Patient/0f0f0f0f-0f0f-4f0f-8f0f-0f0f0f0f0f0f"
            },
            "resourceType":"Observation",
            "id":"48484848-4848-4848-8848-484848484848",
            "identifier":[
               {
                  "system":"urn:oid:aed821af-3330-4138-97f0-e84dfe5f3c35"
               }
            ],
            "code":{
               "coding":[
                  {
                     "system":"urn:oid:2.16.840.1.113883.6.1",
                     "code":"3094-0",
                     "display":"Urea nitrogen, Serum"
                  }
               ]
            },
            "status":"unknown",
            "effectiveDateTime":"2008-03-20T09:30:00+03:00"
         }
      },
      {
         "resource":{
            "result":[
               {
                  "reference":"Observation/3d3d3d3d-3d3d-4d3d-bd3d-3d3d3d3d3d3d"
               },
               {
                  "reference":"Observation/3f3f3f3f-3f3f-4f3f-bf3f-3f3f3f3f3f3f"
               },
               {
                  "reference":"Observation/41414141-4141-4141-8141-414141414141"
               },
               {
                  "reference":"Observation/43434343-4343-4343-8343-434343434343"
               },
               {
                  "reference":"Observation/45454545-4545-4545-8545-454545454545"
               }
            ],
            "issued":"2008-03-19T08:30:00.193319Z",
            "resourceType":"DiagnosticReport",
            "id":"3c3c3c3c-3c3c-4c3c-bc3c-3c3c3c3c3c3c",
            "identifier":[
               {
                  "system":"urn:oid:7d5a02b0-67a4-11db-bd13-0800200c9a66"
               }
            ],
            "status":"final",
            "code":{
               "coding":[
                  {
                     "display":"CBC W Auto Differential panel in Blood",
                     "system":"urn:oid:2.16.840.1.113883.6.1",
                     "code":"57021-8"
                  }
               ]
            },
            "effectivePeriod":{
               "start":"2008-03-19T08:30:00+03:00",
               "end":"2008-03-19T08:30:00+03:00"
            }
         }
      },
      {
         "resource":{
            "effectivePeriod":{
               "end":"2008-03-20T09:30:00+03:00",
               "start":"2008-03-20T09:30:00+03:00"
            },
            "result":[
               {
                  "reference":"Observation/48484848-4848-4848-8848-484848484848"
               }
            ],
            "resourceType":"DiagnosticReport",
            "id":"47474747-4747-4747-8747-474747474747",
            "identifier":[
               {
                  "system":"urn:oid:122ed3ae-6d9e-43d0-bfa2-434ea34b1426"
               }
            ],
            "status":"partial",
            "code":{
               "coding":[
                  {
                     "code":"166312007",
                     "display":"Blood chemistry test",
                     "system":"urn:oid:2.16.840.1.113883.6.96"
                  }
               ]
            }
         }
      },
      {
         "resource":{
            "address":{
               "state":"MI",
               "country":"US",
               "line":[
                  "1004 Health Care Drive"
               ],
               "city":"Ann Arbor"
            },
            "id":"4c4c4c4c-4c4c-4c4c-8c4c-4c4c4c4c4c4c",
            "resourceType":"Location"
         }
      },
      {
         "resource":{
            "telecom":[
               {
                  "value":"tel:+1(555)-555-5005",
                  "system":"phone"
               }
            ],
            "address":[
               {
                  "state":"MI",
                  "country":"US",
                  "line":[
                     "1003 Health Care Drive"
                  ],
                  "city":"Ann Arbor"
               }
            ],
            "id":"4d4d4d4d-4d4d-4d4d-8d4d-4d4d4d4d4d4d",
            "resourceType":"Organization",
            "identifier":[
               {
                  "system":"urn:oid:2.16.840.1.113883.19.5"
               }
            ],
            "name":"Community Health and Hospitals"
         }
      },
      {
         "resource":{
            "location":[
               {
                  "reference":"Location/4c4c4c4c-4c4c-4c4c-8c4c-4c4c4c4c4c4c"
               }
            ],
            "organization":{
               "reference":"Organization/4d4d4d4d-4d4d-4d4d-8d4d-4d4d4d4d4d4d"
            },
            "identifier":[
               {
                  "system":"urn:oid:2.16.840.1.113883.19",
                  "value":"1234"
               }
            ],
            "resourceType":"PractitionerRole",
            "id":"4b4b4b4b-4b4b-4b4b-8b4b-4b4b4b4b4b4b",
            "telecom":[
               {
                  "value":"tel: +1(555)-555-5004",
                  "system":"phone"
               }
            ]
         }
      },
      {
         "resource":{
            "identifier":[
               {
                  "system":"urn:oid:24993f33-6222-41ce-add6-37a9d3da6acb"
               }
            ],
            "type":{
               "coding":[
                  {
                     "code":"87405001",
                     "display":"cane",
                     "system":"urn:oid:2.16.840.1.113883.6.96"
                  }
               ]
            },
            "resourceType":"Device",
            "id":"49494949-4949-4949-8949-494949494949"
         }
      },
      {
         "resource":{
            "performer":[
               {
                  "actor":{
                     "reference":"PractitionerRole/4b4b4b4b-4b4b-4b4b-8b4b-4b4b4b4b4b4b"
                  }
               }
            ],
            "status":"completed",
            "identifier":[
               {
                  "system":"urn:oid:d5b614bd-01ce-410d-8726-e1fd01dcc72a"
               }
            ],
            "performedDateTime":"2013-05-12T00:00:00+05:00",
            "subject":{
               "reference":"Patient/0f0f0f0f-0f0f-4f0f-8f0f-0f0f0f0f0f0f"
            },
            "bodySite":[
               {
                  "coding":[
                     {
                        "system":"urn:oid:2.16.840.1.113883.6.96",
                        "code":"28273000",
                        "display":"bile duct"
                     }
                  ]
               }
            ],
            "code":{
               "coding":[
                  {
                     "display":"Stent Placement",
                     "system":"urn:oid:2.16.840.1.113883.6.96",
                     "code":"103716009"
                  }
               ]
            },
            "resourceType":"Procedure",
            "id":"4a4a4a4a-4a4a-4a4a-8a4a-4a4a4a4a4a4a"
         }
      },
      {
         "resource":{
            "type":{
               "coding":[
                  {
                     "display":"cardiac pacemaker, device (physical object)",
                     "system":"urn:oid:2.16.840.1.113883.6.96",
                     "code":"14106009"
                  }
               ]
            },
            "resourceType":"Device",
            "id":"4e4e4e4e-4e4e-4e4e-8e4e-4e4e4e4e4e4e",
            "identifier":[
               {
                  "system":"urn:oid:24993f33-6222-41ce-add6-37a9d3da6acb"
               }
            ]
         }
      },
      {
         "resource":{
            "resourceType":"Device",
            "id":"4f4f4f4f-4f4f-4f4f-8f4f-4f4f4f4f4f4f",
            "identifier":[
               {
                  "system":"urn:oid:24993f33-6222-41ce-add6-37a9d3da6acb"
               }
            ],
            "type":{
               "coding":[
                  {
                     "code":"303406003",
                     "display":"upper gastrointestinal prosthesis (physical object)",
                     "system":"urn:oid:2.16.840.1.113883.6.96"
                  }
               ]
            }
         }
      },
      {
         "resource":{
            "resourceType":"Organization",
            "name":"Medication Factory Inc.",
            "id":"52525252-5252-4252-9252-525252525252"
         }
      },
      {
         "resource":{
            "identifier":[
               {
                  "system":"urn:oid:2a620155-9d11-439e-92b3-5d9815ff4ee8"
               }
            ],
            "code":{
               "coding":[
                  {
                     "code":"573621",
                     "display":"Proventil 0.09 MG/ACTUAT inhalant solution",
                     "system":"urn:oid:2.16.840.1.113883.6.88"
                  }
               ]
            },
            "manufacturer":{
               "reference":"Organization/52525252-5252-4252-9252-525252525252"
            },
            "resourceType":"Medication",
            "id":"51515151-5151-4151-9151-515151515151"
         }
      },
      {
         "resource":{
            "identifier":[
               {
                  "system":"urn:oid:db734647-fc99-424c-a864-7e3cda82e703",
                  "value":"45665"
               }
            ],
            "category":[
               {
                  "coding":[
                     {
                        "system":"urn:oid:2.16.840.1.113883.6.1",
                        "code":"75321-0",
                        "display":"Clinical finding"
                     }
                  ]
               }
            ],
            "code":{
               "coding":[
                  {
                     "code":"195967001",
                     "display":"Asthma",
                     "system":"urn:oid:2.16.840.1.113883.6.96"
                  }
               ]
            },
            "clinicalStatus":{
               "coding":[
                  {
                     "code":"active",
                     "system":"http://terminology.hl7.org/CodeSystem/condition-clinical"
                  }
               ]
            },
            "onsetDateTime":"2011-01-03T00:00:00+01:00",
            "subject":{
               "reference":"Patient/0f0f0f0f-0f0f-4f0f-8f0f-0f0f0f0f0f0f"
            },
            "id":"53535353-5353-4353-9353-535353535353",
            "resourceType":"Condition"
         }
      },
      {
         "resource":{
            "id":"56565656-5656-4656-9656-565656565656",
            "resourceType":"Organization",
            "name":"Medication Factory Inc."
         }
      },
      {
         "resource":{
            "resourceType":"Medication",
            "id":"55555555-5555-4555-9555-555555555555",
            "identifier":[
               {
                  "system":"urn:oid:2a620155-9d11-439e-92b3-5d9815ff4ee8"
               }
            ],
            "code":{
               "coding":[
                  {
                     "system":"urn:oid:2.16.840.1.113883.6.88",
                     "code":"573621",
                     "display":"Proventil 0.09 MG/ACTUAT inhalant solution"
                  }
               ]
            },
            "manufacturer":{
               "reference":"Organization/56565656-5656-4656-9656-565656565656"
            }
         }
      },
      {
         "resource":{
            "address":{
               "city":"Portland",
               "state":"OR",
               "country":"US",
               "line":[
                  "1016 Health Drive"
               ]
            },
            "id":"58585858-5858-4858-9858-585858585858",
            "resourceType":"Location"
         }
      },
      {
         "resource":{
            "resourceType":"Practitioner",
            "name":[
               {
                  "family":"Script",
                  "given":[
                     "Susan"
                  ],
                  "use":"usual"
               }
            ],
            "id":"59595959-5959-4959-9959-595959595959"
         }
      },
      {
         "resource":{
            "id":"5a5a5a5a-5a5a-4a5a-9a5a-5a5a5a5a5a5a",
            "resourceType":"Organization",
            "name":"People's Pharmacy"
         }
      },
      {
         "resource":{
            "organization":{
               "reference":"Organization/5a5a5a5a-5a5a-4a5a-9a5a-5a5a5a5a5a5a"
            },
            "identifier":[
               {
                  "system":"urn:oid:2.16.840.1.113883.4.6",
                  "value":"333222222"
               }
            ],
            "resourceType":"PractitionerRole",
            "id":"57575757-5757-4757-9757-575757575757",
            "telecom":[
               {
                  "value":"tel:+1(555)555-1016",
                  "system":"phone"
               }
            ],
            "location":[
               {
                  "reference":"Location/58585858-5858-4858-9858-585858585858"
               }
            ],
            "practitioner":{
               "reference":"Practitioner/59595959-5959-4959-9959-595959595959"
            }
         }
      },
      {
         "resource":{
            "id":"54545454-5454-4454-9454-545454545454",
            "status":"completed",
            "whenPrepared":"2008-08-15T14:50:00+08:00",
            "resourceType":"MedicationDispense",
            "whenHandedOver":"2008-08-15T14:50:00+08:00",
            "dosageInstruction":[
               {
                  "doseAndRate":[
                     {
                        "doseQuantity":{
                           "value":75
                        }
                     }
                  ]
               }
            ],
            "identifier":[
               {
                  "system":"urn:oid:1.2.3.4.56789.1",
                  "value":"cb734647-fc99-424c-a864-7e3cda82e704"
               }
            ],
            "quantity":{
               "value":75
            },
            "performer":[
               {
                  "actor":{
                     "reference":"PractitionerRole/57575757-5757-4757-9757-575757575757"
                  }
               }
            ],
            "medicationReference":{
               "reference":"Medication/55555555-5555-4555-9555-555555555555"
            }
         }
      },
      {
         "resource":{
            "id":"5c5c5c5c-5c5c-4c5c-9c5c-5c5c5c5c5c5c",
            "identifier":[
               {
                  "system":"urn:oid:2a620155-9d11-439e-92b3-5d9815ff4ee8"
               }
            ],
            "code":{
               "coding":[
                  {
                     "display":"Atenolol 25 MG Oral Tablet",
                     "system":"urn:oid:2.16.840.1.113883.6.88",
                     "code":"197380"
                  }
               ]
            },
            "resourceType":"Medication"
         }
      },
      {
         "resource":{
            "identifier":[
               {
                  "system":"urn:oid:e63166c7-6482-4a44-83a1-37ccdbde725b"
               }
            ],
            "category":[
               {
                  "coding":[
                     {
                        "system":"urn:oid:2.16.840.1.113883.6.1",
                        "code":"75321-0",
                        "display":"Clinical finding"
                     }
                  ]
               }
            ],
            "code":{
               "coding":[
                  {
                     "code":"38341003",
                     "display":"Hypertension",
                     "system":"urn:oid:2.16.840.1.113883.6.96"
                  }
               ]
            },
            "subject":{
               "reference":"Patient/0f0f0f0f-0f0f-4f0f-8f0f-0f0f0f0f0f0f"
            },
            "id":"5d5d5d5d-5d5d-4d5d-9d5d-5d5d5d5d5d5d",
            "resourceType":"Condition"
         }
      },
      {
         "resource":{
            "partOf":[
               {
                  "reference":"MedicationDispense/54545454-5454-4454-9454-545454545454"
               }
            ],
            "id":"50505050-5050-4050-9050-505050505050",
            "medicationReference":{
               "reference":"Medication/51515151-5151-4151-9151-515151515151"
            },
            "status":"active",
            "subject":{
               "reference":"Patient/0f0f0f0f-0f0f-4f0f-8f0f-0f0f0f0f0f0f"
            },
            "reasonReference":[
               {
                  "reference":"Condition/53535353-5353-4353-9353-535353535353"
               }
            ],
            "dosage":[
               {
                  "route":{
                     "coding":[
                        {
                           "code":"C38216",
                           "display":"RESPIRATORY (INHALATION)",
                           "system":"urn:oid:2.16.840.1.113883.3.26.1.1"
                        }
                     ]
                  },
                  "doseAndRate":[
                     {
                        "doseQuantity":{
                           "value":2
                        }
                     }
                  ]
               }
            ],
            "identifier":[
               {
                  "system":"urn:oid:cdbd33f0-6cde-11db-9fe1-0800200c9a66"
               }
            ],
            "resourceType":"MedicationStatement"
         }
      },
      {
         "resource":{
            "medicationReference":{
               "reference":"Medication/5c5c5c5c-5c5c-4c5c-9c5c-5c5c5c5c5c5c"
            },
            "dosage":[
               {
                  "route":{
                     "coding":[
                        {
                           "system":"urn:oid:2.16.840.1.113883.3.26.1.1",
                           "code":"C38288",
                           "display":"ORAL"
                        }
                     ]
                  },
                  "doseAndRate":[
                     {
                        "doseQuantity":{
                           "value":1
                        }
                     }
                  ]
               }
            ],
            "reasonReference":[
               {
                  "reference":"Condition/5d5d5d5d-5d5d-4d5d-9d5d-5d5d5d5d5d5d"
               }
            ],
            "subject":{
               "reference":"Patient/0f0f0f0f-0f0f-4f0f-8f0f-0f0f0f0f0f0f"
            },
            "resourceType":"MedicationStatement",
            "id":"5b5b5b5b-5b5b-4b5b-9b5b-5b5b5b5b5b5b",
            "identifier":[
               {
                  "system":"urn:oid:6c844c75-aa34-411c-b7bd-5e4a9f206e29"
               }
            ],
            "status":"active"
         }
      },
      {
         "resource":{
            "id":"5f5f5f5f-5f5f-4f5f-9f5f-5f5f5f5f5f5f",
            "resourceType":"Organization",
            "name":"Health LS - Immuno Inc."
         }
      },
      {
         "resource":{
            "address":{
               "country":"US",
               "line":[
                  "1007 Health Drive"
               ],
               "city":"Portland",
               "state":"OR"
            },
            "id":"61616161-6161-4161-a161-616161616161",
            "resourceType":"Location"
         }
      },
      {
         "resource":{
            "id":"62626262-6262-4262-a262-626262626262",
            "resourceType":"Practitioner",
            "name":[
               {
                  "given":[
                     "Harold"
                  ],
                  "use":"usual",
                  "family":"Hippocrates"
               }
            ]
         }
      },
      {
         "resource":{
            "id":"63636363-6363-4363-a363-636363636363",
            "resourceType":"Organization",
            "identifier":[
               {
                  "system":"urn:oid:2.16.840.1.113883.19.5.9999.1394"
               }
            ],
            "name":"Good Health Clinic",
            "telecom":[
               {
                  "value":"tel: +1(555)555-1030",
                  "system":"phone"
               }
            ],
            "address":[
               {
                  "country":"US",
                  "line":[
                     "1007 Health Drive"
                  ],
                  "city":"Portland",
                  "state":"OR"
               }
            ]
         }
      },
      {
         "resource":{
            "identifier":[
               {
                  "value":"2981824",
                  "system":"urn:oid:2.16.840.1.113883.19.5.9999.456"
               }
            ],
            "resourceType":"PractitionerRole",
            "id":"60606060-6060-4060-a060-606060606060",
            "telecom":[
               {
                  "system":"phone",
                  "value":"tel: +1(555)555-1030"
               }
            ],
            "location":[
               {
                  "reference":"Location/61616161-6161-4161-a161-616161616161"
               }
            ],
            "practitioner":{
               "reference":"Practitioner/62626262-6262-4262-a262-626262626262"
            },
            "organization":{
               "reference":"Organization/63636363-6363-4363-a363-636363636363"
            }
         }
      },
      {
         "resource":{
            "id":"65656565-6565-4565-a565-656565656565",
            "resourceType":"Organization",
            "name":"Health LS - Immuno Inc."
         }
      },
      {
         "resource":{
            "resourceType":"Location",
            "address":{
               "country":"US",
               "line":[
                  "1007 Health Drive"
               ],
               "city":"Portland",
               "state":"OR"
            },
            "id":"67676767-6767-4767-a767-676767676767"
         }
      },
      {
         "resource":{
            "id":"68686868-6868-4868-a868-686868686868",
            "resourceType":"Practitioner",
            "name":[
               {
                  "family":"Hippocrates",
                  "given":[
                     "Harold"
                  ],
                  "use":"usual"
               }
            ]
         }
      },
      {
         "resource":{
            "identifier":[
               {
                  "system":"urn:oid:2.16.840.1.113883.19.5.9999.1394"
               }
            ],
            "name":"Good Health Clinic",
            "telecom":[
               {
                  "system":"phone",
                  "value":"tel: +1(555)555-1030"
               }
            ],
            "address":[
               {
                  "line":[
                     "1007 Health Drive"
                  ],
                  "city":"Portland",
                  "state":"OR",
                  "country":"US"
               }
            ],
            "id":"69696969-6969-4969-a969-696969696969",
            "resourceType":"Organization"
         }
      },
      {
         "resource":{
            "resourceType":"PractitionerRole",
            "id":"66666666-6666-4666-a666-666666666666",
            "telecom":[
               {
                  "system":"phone",
                  "value":"tel: +1(555)555-1030"
               }
            ],
            "location":[
               {
                  "reference":"Location/67676767-6767-4767-a767-676767676767"
               }
            ],
            "practitioner":{
               "reference":"Practitioner/68686868-6868-4868-a868-686868686868"
            },
            "organization":{
               "reference":"Organization/69696969-6969-4969-a969-696969696969"
            },
            "identifier":[
               {
                  "value":"2981824",
                  "system":"urn:oid:2.16.840.1.113883.19.5.9999.456"
               }
            ]
         }
      },
      {
         "resource":{
            "id":"6b6b6b6b-6b6b-4b6b-ab6b-6b6b6b6b6b6b",
            "resourceType":"Organization",
            "name":"Health LS - Immuno Inc."
         }
      },
      {
         "resource":{
            "address":{
               "city":"Portland",
               "state":"OR",
               "country":"US",
               "line":[
                  "1007 Health Drive"
               ]
            },
            "id":"6d6d6d6d-6d6d-4d6d-ad6d-6d6d6d6d6d6d",
            "resourceType":"Location"
         }
      },
      {
         "resource":{
            "name":[
               {
                  "given":[
                     "Harold"
                  ],
                  "use":"usual",
                  "family":"Hippocrates"
               }
            ],
            "id":"6e6e6e6e-6e6e-4e6e-ae6e-6e6e6e6e6e6e",
            "resourceType":"Practitioner"
         }
      },
      {
         "resource":{
            "id":"6f6f6f6f-6f6f-4f6f-af6f-6f6f6f6f6f6f",
            "resourceType":"Organization",
            "identifier":[
               {
                  "system":"urn:oid:2.16.840.1.113883.19.5.9999.1394"
               }
            ],
            "name":"Good Health Clinic",
            "telecom":[
               {
                  "system":"phone",
                  "value":"tel: +1(555)555-1030"
               }
            ],
            "address":[
               {
                  "city":"Portland",
                  "state":"OR",
                  "country":"US",
                  "line":[
                     "1007 Health Drive"
                  ]
               }
            ]
         }
      },
      {
         "resource":{
            "practitioner":{
               "reference":"Practitioner/6e6e6e6e-6e6e-4e6e-ae6e-6e6e6e6e6e6e"
            },
            "organization":{
               "reference":"Organization/6f6f6f6f-6f6f-4f6f-af6f-6f6f6f6f6f6f"
            },
            "identifier":[
               {
                  "value":"2981824",
                  "system":"urn:oid:2.16.840.1.113883.19.5.9999.456"
               }
            ],
            "resourceType":"PractitionerRole",
            "id":"6c6c6c6c-6c6c-4c6c-ac6c-6c6c6c6c6c6c",
            "telecom":[
               {
                  "system":"phone",
                  "value":"tel: +1(555)555-1030"
               }
            ],
            "location":[
               {
                  "reference":"Location/6d6d6d6d-6d6d-4d6d-ad6d-6d6d6d6d6d6d"
               }
            ]
         }
      },
      {
         "resource":{
            "resourceType":"Organization",
            "name":"Health LS - Immuno Inc.",
            "id":"71717171-7171-4171-b171-717171717171"
         }
      },
      {
         "resource":{
            "address":{
               "city":"Portland",
               "state":"OR",
               "country":"US",
               "line":[
                  "1007 Health Drive"
               ]
            },
            "id":"73737373-7373-4373-b373-737373737373",
            "resourceType":"Location"
         }
      },
      {
         "resource":{
            "resourceType":"Practitioner",
            "name":[
               {
                  "given":[
                     "Harold"
                  ],
                  "use":"usual",
                  "family":"Hippocrates"
               }
            ],
            "id":"74747474-7474-4474-b474-747474747474"
         }
      },
      {
         "resource":{
            "name":"Good Health Clinic",
            "telecom":[
               {
                  "value":"tel: +1(555)555-1030",
                  "system":"phone"
               }
            ],
            "id":"75757575-7575-4575-b575-757575757575",
            "resourceType":"Organization",
            "identifier":[
               {
                  "system":"urn:oid:2.16.840.1.113883.19.5.9999.1394"
               }
            ]
         }
      },
      {
         "resource":{
            "telecom":[
               {
                  "system":"phone",
                  "value":"tel: +1(555)555-1030"
               }
            ],
            "location":[
               {
                  "reference":"Location/73737373-7373-4373-b373-737373737373"
               }
            ],
            "practitioner":{
               "reference":"Practitioner/74747474-7474-4474-b474-747474747474"
            },
            "organization":{
               "reference":"Organization/75757575-7575-4575-b575-757575757575"
            },
            "identifier":[
               {
                  "system":"urn:oid:2.16.840.1.113883.19.5.9999.456",
                  "value":"2981824"
               }
            ],
            "resourceType":"PractitionerRole",
            "id":"72727272-7272-4272-b272-727272727272"
         }
      },
      {
         "resource":{
            "address":{
               "line":[
                  "1007 Health Drive"
               ],
               "city":"Portland",
               "state":"OR",
               "country":"US"
            },
            "id":"78787878-7878-4878-b878-787878787878",
            "resourceType":"Location"
         }
      },
      {
         "resource":{
            "name":[
               {
                  "family":"Hippocrates",
                  "given":[
                     "Harold"
                  ],
                  "use":"usual"
               }
            ],
            "id":"79797979-7979-4979-b979-797979797979",
            "resourceType":"Practitioner"
         }
      },
      {
         "resource":{
            "name":"Good Health Clinic",
            "telecom":[
               {
                  "system":"phone",
                  "value":"tel: +1(555)555-1030"
               }
            ],
            "address":[
               {
                  "city":"Portland",
                  "state":"OR",
                  "country":"US",
                  "line":[
                     "1007 Health Drive"
                  ]
               }
            ],
            "id":"7a7a7a7a-7a7a-4a7a-ba7a-7a7a7a7a7a7a",
            "resourceType":"Organization",
            "identifier":[
               {
                  "system":"urn:oid:2.16.840.1.113883.19.5.9999.1394"
               }
            ]
         }
      },
      {
         "resource":{
            "identifier":[
               {
                  "value":"2981824",
                  "system":"urn:oid:2.16.840.1.113883.19.5.9999.456"
               }
            ],
            "resourceType":"PractitionerRole",
            "id":"77777777-7777-4777-b777-777777777777",
            "telecom":[
               {
                  "value":"tel: +1(555)555-1030",
                  "system":"phone"
               }
            ],
            "location":[
               {
                  "reference":"Location/78787878-7878-4878-b878-787878787878"
               }
            ],
            "practitioner":{
               "reference":"Practitioner/79797979-7979-4979-b979-797979797979"
            },
            "organization":{
               "reference":"Organization/7a7a7a7a-7a7a-4a7a-ba7a-7a7a7a7a7a7a"
            }
         }
      },
      {
         "resource":{
            "resourceType":"Immunization",
            "patient":{
               "reference":"Patient/0f0f0f0f-0f0f-4f0f-8f0f-0f0f0f0f0f0f"
            },
            "route":{
               "coding":[
                  {
                     "code":"C28161",
                     "display":"Intramuscular injection",
                     "system":"urn:oid:2.16.840.1.113883.3.26.1.1"
                  }
               ]
            },
            "manufacturer":{
               "reference":"Organization/5f5f5f5f-5f5f-4f5f-9f5f-5f5f5f5f5f5f"
            },
            "id":"5e5e5e5e-5e5e-4e5e-9e5e-5e5e5e5e5e5e",
            "status":"completed",
            "lotNumber":"1",
            "performer":[
               {
                  "actor":{
                     "reference":"PractitionerRole/60606060-6060-4060-a060-606060606060"
                  }
               }
            ],
            "vaccineCode":{
               "coding":[
                  {
                     "code":"88",
                     "display":"Influenza virus vaccine",
                     "system":"urn:oid:2.16.840.1.113883.6.59"
                  }
               ]
            },
            "identifier":[
               {
                  "system":"urn:oid:e6f1ba43-c0ed-4b9b-9f12-f435d8ad8f92"
               }
            ],
            "recorded":"1999-11-01T00:00:00+11:00",
            "doseQuantity":{
               "unit":"ug",
               "value":50
            },
            "occurrenceDateTime":"1999-11-01T00:00:00+11:00"
         }
      },
      {
         "resource":{
            "lotNumber":"1",
            "identifier":[
               {
                  "system":"urn:oid:e6f1ba43-c0ed-4b9b-9f12-f435d8ad8f92"
               }
            ],
            "patient":{
               "reference":"Patient/0f0f0f0f-0f0f-4f0f-8f0f-0f0f0f0f0f0f"
            },
            "resourceType":"Immunization",
            "vaccineCode":{
               "coding":[
                  {
                     "display":"Influenza virus vaccine",
                     "system":"urn:oid:2.16.840.1.113883.6.59",
                     "code":"88"
                  }
               ]
            },
            "status":"completed",
            "recorded":"1998-12-15T00:00:00+12:00",
            "id":"64646464-6464-4464-a464-646464646464",
            "route":{
               "coding":[
                  {
                     "system":"urn:oid:2.16.840.1.113883.3.26.1.1",
                     "code":"C28161",
                     "display":"Intramuscular injection"
                  }
               ]
            },
            "occurrenceDateTime":"1998-12-15T00:00:00+12:00",
            "doseQuantity":{
               "value":50,
               "unit":"ug"
            },
            "performer":[
               {
                  "actor":{
                     "reference":"PractitionerRole/66666666-6666-4666-a666-666666666666"
                  }
               }
            ],
            "manufacturer":{
               "reference":"Organization/65656565-6565-4565-a565-656565656565"
            }
         }
      },
      {
         "resource":{
            "id":"6a6a6a6a-6a6a-4a6a-aa6a-6a6a6a6a6a6a",
            "manufacturer":{
               "reference":"Organization/6b6b6b6b-6b6b-4b6b-ab6b-6b6b6b6b6b6b"
            },
            "patient":{
               "reference":"Patient/0f0f0f0f-0f0f-4f0f-8f0f-0f0f0f0f0f0f"
            },
            "doseQuantity":{
               "value":50,
               "unit":"ug"
            },
            "status":"completed",
            "identifier":[
               {
                  "system":"urn:oid:e6f1ba43-c0ed-4b9b-9f12-f435d8ad8f92"
               }
            ],
            "lotNumber":"1",
            "occurrenceDateTime":"1998-12-15T00:00:00+12:00",
            "resourceType":"Immunization",
            "performer":[
               {
                  "actor":{
                     "reference":"PractitionerRole/6c6c6c6c-6c6c-4c6c-ac6c-6c6c6c6c6c6c"
                  }
               }
            ],
            "vaccineCode":{
               "coding":[
                  {
                     "code":"33",
                     "display":"Pneumococcal polysaccharide vaccine",
                     "system":"urn:oid:2.16.840.1.113883.6.59"
                  }
               ]
            },
            "route":{
               "coding":[
                  {
                     "code":"C28161",
                     "display":"Intramuscular injection",
                     "system":"urn:oid:2.16.840.1.113883.3.26.1.1"
                  }
               ]
            },
            "recorded":"1998-12-15T00:00:00+12:00"
         }
      },
      {
         "resource":{
            "manufacturer":{
               "reference":"Organization/71717171-7171-4171-b171-717171717171"
            },
            "id":"70707070-7070-4070-b070-707070707070",
            "vaccineCode":{
               "coding":[
                  {
                     "system":"urn:oid:2.16.840.1.113883.6.59",
                     "code":"103",
                     "display":"Tetanus and diphtheria toxoids - preservative free"
                  }
               ]
            },
            "recorded":"1998-12-15T00:00:00+12:00",
            "performer":[
               {
                  "actor":{
                     "reference":"PractitionerRole/72727272-7272-4272-b272-727272727272"
                  }
               }
            ],
            "route":{
               "coding":[
                  {
                     "display":"Intramuscular injection",
                     "system":"urn:oid:2.16.840.1.113883.3.26.1.1",
                     "code":"C28161"
                  }
               ]
            },
            "patient":{
               "reference":"Patient/0f0f0f0f-0f0f-4f0f-8f0f-0f0f0f0f0f0f"
            },
            "identifier":[
               {
                  "system":"urn:oid:e6f1ba43-c0ed-4b9b-9f12-f435d8ad8f92"
               }
            ],
            "statusReason":{
               "coding":[
                  {
                     "system":"urn:oid:2.16.840.1.113883.5.8",
                     "code":"PATOBJ",
                     "display":"Patient Objection"
                  }
               ]
            },
            "doseQuantity":{
               "value":50,
               "unit":"ug"
            },
            "lotNumber":"1",
            "occurrenceDateTime":"1998-12-15T00:00:00+12:00",
            "status":"completed",
            "resourceType":"Immunization"
         }
      },
      {
         "resource":{
            "status":"completed",
            "route":{
               "coding":[
                  {
                     "code":"C28161",
                     "display":"Intramuscular injection",
                     "system":"urn:oid:2.16.840.1.113883.3.26.1.1"
                  }
               ]
            },
            "vaccineCode":{
               "coding":[
                  {
                     "system":"urn:oid:2.16.840.1.113883.6.59",
                     "code":"45",
                     "display":"Hepatitis B vaccine"
                  }
               ]
            },
            "resourceType":"Immunization",
            "patient":{
               "reference":"Patient/0f0f0f0f-0f0f-4f0f-8f0f-0f0f0f0f0f0f"
            },
            "performer":[
               {
                  "actor":{
                     "reference":"PractitionerRole/77777777-7777-4777-b777-777777777777"
                  }
               }
            ],
            "occurrenceDateTime":"2013-08-01T00:00:00+08:00",
            "lotNumber":"1",
            "identifier":[
               {
                  "system":"urn:oid:de10790f-1496-4719-8fe6-f1b87b6219f7"
               }
            ],
            "recorded":"2013-08-01T00:00:00+08:00",
            "id":"76767676-7676-4676-b676-767676767676"
         }
      },
      {
         "resource":{
            "id":"7c7c7c7c-7c7c-4c7c-bc7c-7c7c7c7c7c7c",
            "code":[
               {
                  "coding":[
                     {
                        "system":"urn:oid:2.16.840.1.113883.6.101",
                        "code":"207QA0505X",
                        "display":"Adult Medicine"
                     }
                  ]
               }
            ],
            "identifier":[
               {
                  "system":"urn:oid:2.16.840.1.113883.4.6",
                  "value":"555555555"
               }
            ],
            "resourceType":"PractitionerRole"
         }
      },
      {
         "resource":{
            "identifier":[
               {
                  "value":"555555555",
                  "system":"urn:oid:2.16.840.1.113883.4.6"
               }
            ],
            "resourceType":"PractitionerRole",
            "id":"7e7e7e7e-7e7e-4e7e-be7e-7e7e7e7e7e7e",
            "code":[
               {
                  "coding":[
                     {
                        "display":"Adult Medicine",
                        "system":"urn:oid:2.16.840.1.113883.6.101",
                        "code":"207QA0505X"
                     }
                  ]
               }
            ]
         }
      },
      {
         "resource":{
            "reaction":[
               {
                  "substance":{
                     "coding":[
                        {
                           "display":"Penicillin",
                           "system":"urn:oid:2.16.840.1.113883.6.88",
                           "code":"70618"
                        }
                     ]
                  },
                  "manifestation":[
                     {
                        "coding":[
                           {
                              "system":"urn:oid:2.16.840.1.113883.6.96",
                              "code":"422587007",
                              "display":"Nausea"
                           }
                        ]
                     }
                  ],
                  "severity":"mild"
               }
            ],
            "clinicalStatus":{
               "coding":[
                  {
                     "system":"http://terminology.hl7.org/CodeSystem/allergyintolerance-clinical",
                     "code":"active"
                  }
               ]
            },
            "category":[
               "environment"
            ],
            "resourceType":"AllergyIntolerance",
            "id":"7b7b7b7b-7b7b-4b7b-bb7b-7b7b7b7b7b7b",
            "recorder":{
               "reference":"PractitionerRole/7c7c7c7c-7c7c-4c7c-bc7c-7c7c7c7c7c7c"
            },
            "onsetPeriod":{
               "start":"2008-05-01T11:45:00+05:00"
            },
            "identifier":[
               {
                  "system":"urn:oid:36e3e930-7b14-11db-9fe1-0800200c9a66"
               }
            ],
            "patient":{
               "reference":"Patient/0f0f0f0f-0f0f-4f0f-8f0f-0f0f0f0f0f0f"
            }
         }
      },
      {
         "resource":{
            "onsetPeriod":{
               "start":"2008-05-01T11:45:00+05:00"
            },
            "resourceType":"AllergyIntolerance",
            "recorder":{
               "reference":"PractitionerRole/7e7e7e7e-7e7e-4e7e-be7e-7e7e7e7e7e7e"
            },
            "id":"7d7d7d7d-7d7d-4d7d-bd7d-7d7d7d7d7d7d",
            "category":[
               "environment"
            ],
            "reaction":[
               {
                  "manifestation":[
                     {
                        "coding":[
                           {
                              "system":"urn:oid:2.16.840.1.113883.6.96",
                              "code":"56018004",
                              "display":"Wheezing"
                           }
                        ]
                     }
                  ],
                  "severity":"moderate",
                  "substance":{
                     "coding":[
                        {
                           "display":"Codeine",
                           "system":"urn:oid:2.16.840.1.113883.6.88",
                           "code":"2670"
                        }
                     ]
                  }
               }
            ],
            "identifier":[
               {
                  "system":"urn:oid:b03805bd-2eb6-4ab8-a9ff-473c6653971a"
               }
            ],
            "clinicalStatus":{
               "coding":[
                  {
                     "code":"active",
                     "system":"http://terminology.hl7.org/CodeSystem/allergyintolerance-clinical"
                  }
               ]
            },
            "patient":{
               "reference":"Patient/0f0f0f0f-0f0f-4f0f-8f0f-0f0f0f0f0f0f"
            }
         }
      }
   ],
   "resourceType":"Bundle",
   "identifier":{
      "system":"urn:oid:2.16.840.1.113883.19.5.99999.1",
      "value":"TT988"
   }
}
