{
   "identifier":{
      "value":"IHS-20180301010000.00120"
   },
   "resourceType":"Bundle",
   "type":"transaction",
   "entry":[
      {
         "resource":{
            "resourceType":"Organization",
            "identifier":[
               {
                  "type":{
                     "coding":[
                        {
                           "system":"http://terminology.hl7.org/CodeSystem/v2-0301"
                        }
                     ]
                  },
                  "value":"UNV"
               },
               {
                  "type":{
                     "coding":[
                        {
                           "system":"http://terminology.hl7.org/CodeSystem/v2-0301"
                        }
                     ]
                  }
               }
            ],
            "id":"01010101-0101-4101-8101-010101010101"
         },
         "request":{
            "url":"Organization/01010101-0101-4101-8101-010101010101",
            "method":"PUT"
         }
      },
      {
         "resource":{
            "resourceType":"Organization",
            "identifier":[
               {
                  "type":{
                     "coding":[
                        {
                           "system":"http://terminology.hl7.org/CodeSystem/v2-0301"
                        }
                     ]
                  },
                  "value":"UNV"
               },
               {
                  "type":{
                     "coding":[
                        {
                           "system":"http://terminology.hl7.org/CodeSystem/v2-0301"
                        }
                     ]
                  }
               }
            ],
            "id":"02020202-0202-4202-8202-020202020202"
         },
         "request":{
            "url":"Organization/02020202-0202-4202-8202-020202020202",
            "method":"PUT"
         }
      },
      {
         "resource":{
            "resourceType":"Organization",
            "identifier":[
               {
                  "type":{
                     "coding":[
                        {
                           "system":"http://terminology.hl7.org/CodeSystem/v2-0203"
                        }
                     ]
                  }
               }
            ],
            "id":"03030303-0303-4303-8303-030303030303"
         },
         "request":{
            "method":"PUT",
            "url":"Organization/03030303-0303-4303-8303-030303030303"
         }
      },
      {
         "request":{
            "method":"PUT",
            "url":"MessageHeader/04040404-0404-4404-8404-040404040404"
         },
         "resource":{
            "responsible":{
               "reference":"Organization/03030303-0303-4303-8303-030303030303"
            },
            "destination":[
               {
                  "endpoint":"UNV",
                  "name":"PREMISE"
               }
            ],
            "resourceType":"MessageHeader",
            "id":"04040404-0404-4404-8404-040404040404",
            "sender":{
               "reference":"Organization/01010101-0101-4101-8101-010101010101"
            },
            "meta":{
               "tag":[
                  {
                     "code":"P",
                     "system":"http://terminology.hl7.org/CodeSystem/v2-0103"
                  },
                  {
                     "system":"http://terminology.hl7.org/CodeSystem/v2-0207"
                  }
               ]
            },
            "event":{
               "system":"http://terminology.hl7.org/CodeSystem/v2-0003",
               "code":"A04"
            },
            "receiver":{
               "reference":"Organization/02020202-0202-4202-8202-020202020202"
            },
            "source":{
               "endpoint":"unknown",
               "name":"MS4_AZ"
            },
            "timestamp":"2018-03-01T01:00:00.1331Z"
         }
      },
      {
         "resource":{
            "resourceType":"Device",
            "identifier":[
               {
                  "value":"MS4_AZ",
                  "type":{
                     "coding":[
                        {
                           "system":"http://terminology.hl7.org/CodeSystem/v2-0301"
                        }
                     ]
                  }
               }
            ],
            "id":"05050505-0505-4505-8505-050505050505"
         },
         "request":{
            "url":"Device/05050505-0505-4505-8505-050505050505",
            "method":"PUT"
         }
      },
      {
         "request":{
            "method":"PUT",
            "url":"Provenance/06060606-0606-4606-8606-060606060606"
         },
         "resource":{
            "agent":[
               {
                  "whoReference":{
                     "reference":"Device/05050505-0505-4505-8505-050505050505"
                  }
               }
            ],
            "recorded":"2018-03-01T01:00:00.1331Z",
            "target":[
               {
                  "reference":"MessageHeader/04040404-0404-4404-8404-040404040404"
               }
            ],
            "id":"06060606-0606-4606-8606-060606060606",
            "resourceType":"Provenance"
         }
      },
      {
         "resource":{
            "name":[
               {
                  "use":"anonymous",
                  "family":"BUNNY",
                  "given":[
                     "BUGS",
                     "RABBIT"
                  ],
                  "suffix":[
                     "MS"
                  ]
               }
            ],
            "birthDate":"1983-02-15",
            "gender":"male",
            "address":[
               {
                  "city":"CRAIGMONT",
                  "state":"ID",
                  "postalCode":"83523",
                  "country":"USA",
                  "line":[
                     "1234 LOONEY RD",
                     "APT A"
                  ]
               }
            ],
            "active":true,
            "id":"08080808-0808-4808-8808-080808080808",
            "resourceType":"Patient",
            "identifier":[
               {
                  "value":"19050114293307.1082"
               },
               {
                  "type":{
                     "coding":[
                        {
                           "code":"SB"
                        }
                     ]
                  },
                  "value":"111-11-1111"
               },
               {
                  "type":{
                     "coding":[
                        {
                           "code":"DL"
                        }
                     ]
                  }
               }
            ]
         },
         "request":{
            "method":"PUT",
            "url":"Patient/08080808-0808-4808-8808-080808080808"
         }
      },
      {
         "resource":{
            "identifier":[
               {
                  "value":"111-11-1111"
               }
            ],
            "subject":{
               "reference":"Patient/08080808-0808-4808-8808-080808080808"
            },
            "id":"09090909-0909-4909-8909-090909090909",
            "resourceType":"Account"
         },
         "request":{
            "url":"Account/09090909-0909-4909-8909-090909090909",
            "method":"PUT"
         }
      },
      {
         "request":{
            "method":"PUT",
            "url":"Location/0d0d0d0d-0d0d-4d0d-8d0d-0d0d0d0d0d0d"
         },
         "resource":{
            "resourceType":"Location",
            "name":"ED",
            "mode":"instance",
            "physicalType":{
               "coding":[
                  {
                     "system":"http://terminology.hl7.org/CodeSystem/location-physical-type",
                     "code":"si"
                  }
               ]
            },
            "id":"0d0d0d0d-0d0d-4d0d-8d0d-0d0d0d0d0d0d",
            "partOf":{
               "reference":"Location/0b0b0b0b-0b0b-4b0b-8b0b-0b0b0b0b0b0b"
            }
         }
      },
      {
         "request":{
            "url":"Location/0e0e0e0e-0e0e-4e0e-8e0e-0e0e0e0e0e0e",
            "method":"PUT"
         },
         "resource":{
            "resourceType":"Location",
            "mode":"instance",
            "physicalType":{
               "coding":[
                  {
                     "system":"http://terminology.hl7.org/CodeSystem/location-physical-type",
                     "code":"ro"
                  }
               ]
            },
            "id":"0e0e0e0e-0e0e-4e0e-8e0e-0e0e0e0e0e0e",
            "partOf":{
               "reference":"Location/0d0d0d0d-0d0d-4d0d-8d0d-0d0d0d0d0d0d"
            }
         }
      },
      {
         "request":{
            "method":"PUT",
            "url":"Location/0f0f0f0f-0f0f-4f0f-8f0f-0f0f0f0f0f0f"
         },
         "resource":{
            "resourceType":"Location",
            "mode":"instance",
            "physicalType":{
               "coding":[
                  {
                     "code":"bd",
                     "system":"http://terminology.hl7.org/CodeSystem/location-physical-type"
                  }
               ]
            },
            "id":"0f0f0f0f-0f0f-4f0f-8f0f-0f0f0f0f0f0f",
            "partOf":{
               "reference":"Location/0e0e0e0e-0e0e-4e0e-8e0e-0e0e0e0e0e0e"
            }
         }
      },
      {
         "request":{
            "url":"Location/0a0a0a0a-0a0a-4a0a-8a0a-0a0a0a0a0a0a",
            "method":"PUT"
         },
         "resource":{
            "mode":"instance",
            "physicalType":{
               "coding":[
                  {
                     "system":"http://terminology.hl7.org/CodeSystem/location-physical-type",
                     "code":"si"
                  }
               ]
            },
            "id":"0a0a0a0a-0a0a-4a0a-8a0a-0a0a0a0a0a0a",
            "resourceType":"Location",
            "name":"UNV"
         }
      },
      {
         "request":{
            "method":"PUT",
            "url":"Location/0b0b0b0b-0b0b-4b0b-8b0b-0b0b0b0b0b0b"
         },
         "resource":{
            "id":"0b0b0b0b-0b0b-4b0b-8b0b-0b0b0b0b0b0b",
            "partOf":{
               "reference":"Location/0a0a0a0a-0a0a-4a0a-8a0a-0a0a0a0a0a0a"
            },
            "resourceType":"Location",
            "mode":"instance",
            "physicalType":{
               "coding":[
                  {
                     "code":"bu",
                     "system":"http://terminology.hl7.org/CodeSystem/location-physical-type"
                  }
               ]
            }
         }
      },
      {
         "resource":{
            "resourceType":"Location",
            "partOf":{
               "reference":"Location/0b0b0b0b-0b0b-4b0b-8b0b-0b0b0b0b0b0b"
            },
            "mode":"instance",
            "physicalType":{
               "coding":[
                  {
                     "system":"http://terminology.hl7.org/CodeSystem/location-physical-type",
                     "code":"lvl"
                  }
               ]
            },
            "id":"0c0c0c0c-0c0c-4c0c-8c0c-0c0c0c0c0c0c"
         },
         "request":{
            "url":"Location/0c0c0c0c-0c0c-4c0c-8c0c-0c0c0c0c0c0c",
            "method":"PUT"
         }
      },
      {
         "request":{
            "url":"Location/13131313-1313-4313-9313-131313131313",
            "method":"PUT"
         },
         "resource":{
            "partOf":{
               "reference":"Location/11111111-1111-4111-9111-111111111111"
            },
            "mode":"instance",
            "physicalType":{
               "coding":[
                  {
                     "system":"http://terminology.hl7.org/CodeSystem/location-physical-type",
                     "code":"si"
                  }
               ]
            },
            "id":"13131313-1313-4313-9313-131313131313",
            "resourceType":"Location"
         }
      },
      {
         "resource":{
            "resourceType":"Location",
            "mode":"instance",
            "partOf":{
               "reference":"Location/13131313-1313-4313-9313-131313131313"
            },
            "physicalType":{
               "coding":[
                  {
                     "system":"http://terminology.hl7.org/CodeSystem/location-physical-type",
                     "code":"ro"
                  }
               ]
            },
            "id":"14141414-1414-4414-9414-141414141414"
         },
         "request":{
            "method":"PUT",
            "url":"Location/14141414-1414-4414-9414-141414141414"
         }
      },
      {
         "request":{
            "method":"PUT",
            "url":"Location/15151515-1515-4515-9515-151515151515"
         },
         "resource":{
            "partOf":{
               "reference":"Location/14141414-1414-4414-9414-141414141414"
            },
            "resourceType":"Location",
            "mode":"instance",
            "physicalType":{
               "coding":[
                  {
                     "code":"bd",
                     "system":"http://terminology.hl7.org/CodeSystem/location-physical-type"
                  }
               ]
            },
            "id":"15151515-1515-4515-9515-151515151515"
         }
      },
      {
         "resource":{
            "resourceType":"Location",
            "mode":"instance",
            "physicalType":{
               "coding":[
                  {
                     "system":"http://terminology.hl7.org/CodeSystem/location-physical-type",
                     "code":"si"
                  }
               ]
            },
            "id":"10101010-1010-4010-9010-101010101010"
         },
         "request":{
            "url":"Location/10101010-1010-4010-9010-101010101010",
            "method":"PUT"
         }
      },
      {
         "resource":{
            "id":"11111111-1111-4111-9111-111111111111",
            "resourceType":"Location",
            "mode":"instance",
            "physicalType":{
               "coding":[
                  {
                     "code":"bu",
                     "system":"http://terminology.hl7.org/CodeSystem/location-physical-type"
                  }
               ]
            },
            "partOf":{
               "reference":"Location/10101010-1010-4010-9010-101010101010"
            }
         },
         "request":{
            "method":"PUT",
            "url":"Location/11111111-1111-4111-9111-111111111111"
         }
      },
      {
         "resource":{
            "resourceType":"Location",
            "partOf":{
               "reference":"Location/11111111-1111-4111-9111-111111111111"
            },
            "mode":"instance",
            "physicalType":{
               "coding":[
                  {
                     "code":"lvl",
                     "system":"http://terminology.hl7.org/CodeSystem/location-physical-type"
                  }
               ]
            },
            "id":"12121212-1212-4212-9212-121212121212"
         },
         "request":{
            "method":"PUT",
            "url":"Location/12121212-1212-4212-9212-121212121212"
         }
      },
      {
         "request":{
            "url":"Practitioner/16161616-1616-4616-9616-161616161616",
            "method":"PUT"
         },
         "resource":{
            "identifier":[
               {
                  "value":"999-99-9999"
               }
            ],
            "name":[
               {
                  "given":[
                     "CHANDRA",
                     "ANDRIA"
                  ],
                  "suffix":[
                     "MD"
                  ],
                  "prefix":[
                     "DR"
                  ],
                  "use":"anonymous",
                  "family":"MUNCHER"
               }
            ],
            "id":"16161616-1616-4616-9616-161616161616",
            "resourceType":"Practitioner"
         }
      },
      {
         "resource":{
            "name":[
               {
                  "suffix":[
                     "MD"
                  ],
                  "prefix":[
                     "DR"
                  ],
                  "use":"anonymous",
                  "family":"SMETHERS",
                  "given":[
                     "ANNETTA",
                     "JONI"
                  ]
               }
            ],
            "id":"17171717-1717-4717-9717-171717171717",
            "resourceType":"Practitioner",
            "identifier":[
               {
                  "value":"888-88-8888"
               }
            ]
         },
         "request":{
            "method":"PUT",
            "url":"Practitioner/17171717-1717-4717-9717-171717171717"
         }
      },
      {
         "request":{
            "url":"Location/18181818-1818-4818-9818-181818181818",
            "method":"PUT"
         },
         "resource":{
            "resourceType":"Location",
            "id":"18181818-1818-4818-9818-181818181818"
         }
      },
      {
         "resource":{
            "patient":{
               "reference":"Patient/08080808-0808-4808-8808-080808080808"
            },
            "id":"19191919-1919-4919-9919-191919191919",
            "resourceType":"EpisodeOfCare",
            "status":"finished"
         },
         "request":{
            "url":"EpisodeOfCare/19191919-1919-4919-9919-191919191919",
            "method":"PUT"
         }
      },
      {
         "resource":{
            "period":{
               "start":"2018-03-01T01:00:00+03:00"
            },
            "class":{
               "display":"emergency",
               "system":"http://terminology.hl7.org/CodeSystem/v3-ActCode",
               "code":"EMER",
               "version":"v1"
            },
            "status":"in-progress",
            "hospitalization":{
               "destination":{
                  "reference":"Location/18181818-1818-4818-9818-181818181818"
               },
               "admitSource":{
                  "coding":[
                     {
                        "code":"7"
                     }
                  ]
               }
            },
            "participant":[
               {
                  "individual":{
                     "reference":"Practitioner/16161616-1616-4616-9616-161616161616"
                  },
                  "type":[
                     {
                        "coding":[
                           {
                              "system":"http://terminology.hl7.org/CodeSystem/v3-ParticipationType",
                              "display":"attender",
                              "code":"ATND"
                           }
                        ]
                     }
                  ]
               },
               {
                  "individual":{
                     "reference":"Practitioner/17171717-1717-4717-9717-171717171717"
                  },
                  "type":[
                     {
                        "coding":[
                           {
                              "display":"referrer",
                              "code":"REF",
                              "system":"http://terminology.hl7.org/CodeSystem/v3-ParticipationType"
                           }
                        ]
                     }
                  ]
               }
            ],
            "resourceType":"Encounter",
            "id":"1a1a1a1a-1a1a-4a1a-9a1a-1a1a1a1a1a1a",
            "type":[
               {
                  "coding":[
                     {
                        "code":"C"
                     }
                  ]
               }
            ],
            "identifier":[
               {
                  "type":{
                     "coding":[
                        {
                           "system":"http://terminology.hl7.org/CodeSystem/v2-0203",
                           "code":"VN"
                        }
                     ],
                     "text":"visit number"
                  }
               }
            ],
            "episodeOfCare":[
               {
                  "reference":"EpisodeOfCare/19191919-1919-4919-9919-191919191919"
               }
            ],
            "subject":{
               "reference":"Patient/08080808-0808-4808-8808-080808080808"
            },
            "location":[
               {
                  "location":{
                     "reference":"Location/0d0d0d0d-0d0d-4d0d-8d0d-0d0d0d0d0d0d"
                  },
                  "status":"active"
               },
               {
                  "location":{
                     "reference":"Location/0e0e0e0e-0e0e-4e0e-8e0e-0e0e0e0e0e0e"
                  },
                  "status":"active"
               },
               {
                  "status":"active",
                  "location":{
                     "reference":"Location/0f0f0f0f-0f0f-4f0f-8f0f-0f0f0f0f0f0f"
                  }
               },
               {
                  "location":{
                     "reference":"Location/0a0a0a0a-0a0a-4a0a-8a0a-0a0a0a0a0a0a"
                  },
                  "status":"active"
               },
               {
                  "status":"active",
                  "location":{
                     "reference":"Location/0b0b0b0b-0b0b-4b0b-8b0b-0b0b0b0b0b0b"
                  }
               },
               {
                  "status":"active",
                  "location":{
                     "reference":"Location/0c0c0c0c-0c0c-4c0c-8c0c-0c0c0c0c0c0c"
                  }
               },
               {
                  "location":{
                     "reference":"Location/13131313-1313-4313-9313-131313131313"
                  },
                  "status":"completed"
               },
               {
                  "location":{
                     "reference":"Location/14141414-1414-4414-9414-141414141414"
                  },
                  "status":"completed"
               },
               {
                  "status":"completed",
                  "location":{
                     "reference":"Location/15151515-1515-4515-9515-151515151515"
                  }
               },
               {
                  "location":{
                     "reference":"Location/10101010-1010-4010-9010-101010101010"
                  },
                  "status":"completed"
               },
               {
                  "status":"completed",
                  "location":{
                     "reference":"Location/11111111-1111-4111-9111-111111111111"
                  }
               },
               {
                  "status":"completed",
                  "location":{
                     "reference":"Location/12121212-1212-4212-9212-121212121212"
                  }
               }
            ]
         },
         "request":{
            "method":"PUT",
            "url":"Encounter/1a1a1a1a-1a1a-4a1a-9a1a-1a1a1a1a1a1a"
         }
      }
   ]
}
