{
   "identifier":{
      "value":"459"
   },
   "resourceType":"Bundle",
   "type":"transaction",
   "entry":[
      {
         "request":{
            "method":"PUT",
            "url":"Organization/01010101-0101-4101-8101-010101010101"
         },
         "resource":{
            "id":"01010101-0101-4101-8101-010101010101",
            "resourceType":"Organization",
            "address":[
               {
                  "country":"44"
               }
            ],
            "identifier":[
               {
                  "type":{
                     "coding":[
                        {
                           "system":"http://terminology.hl7.org/CodeSystem/v2-0301"
                        }
                     ]
                  },
                  "value":"SFAC"
               },
               {
                  "type":{
                     "coding":[
                        {
                           "system":"http://terminology.hl7.org/CodeSystem/v2-0301"
                        }
                     ]
                  }
               }
            ]
         }
      },
      {
         "request":{
            "url":"Organization/02020202-0202-4202-8202-020202020202",
            "method":"PUT"
         },
         "resource":{
            "identifier":[
               {
                  "type":{
                     "coding":[
                        {
                           "system":"http://terminology.hl7.org/CodeSystem/v2-0301"
                        }
                     ]
                  },
                  "value":"RFAC"
               },
               {
                  "type":{
                     "coding":[
                        {
                           "system":"http://terminology.hl7.org/CodeSystem/v2-0301"
                        }
                     ]
                  }
               }
            ],
            "id":"02020202-0202-4202-8202-020202020202",
            "resourceType":"Organization"
         }
      },
      {
         "request":{
            "method":"PUT",
            "url":"Organization/03030303-0303-4303-8303-030303030303"
         },
         "resource":{
            "identifier":[
               {
                  "type":{
                     "coding":[
                        {
                           "system":"http://terminology.hl7.org/CodeSystem/v2-0203"
                        }
                     ]
                  }
               }
            ],
            "id":"03030303-0303-4303-8303-030303030303",
            "resourceType":"Organization"
         }
      },
      {
         "resource":{
            "receiver":{
               "reference":"Organization/02020202-0202-4202-8202-020202020202"
            },
            "event":{
               "system":"http://terminology.hl7.org/CodeSystem/v2-0003",
               "code":"A03"
            },
            "timestamp":"2020-05-26T16:59:46.265526Z",
            "meta":{
               "tag":[
                  {
                     "code":"T",
                     "system":"http://terminology.hl7.org/CodeSystem/v2-0103"
                  },
                  {
                     "system":"http://terminology.hl7.org/CodeSystem/v2-0207"
                  }
               ]
            },
            "destination":[
               {
                  "name":"RAPP",
                  "endpoint":"RFAC"
               }
            ],
            "source":{
               "name":"SIMHOSP",
               "endpoint":"unknown"
            },
            "resourceType":"MessageHeader",
            "id":"04040404-0404-4404-8404-040404040404",
            "responsible":{
               "reference":"Organization/03030303-0303-4303-8303-030303030303"
            },
            "sender":{
               "reference":"Organization/01010101-0101-4101-8101-010101010101"
            }
         },
         "request":{
            "url":"MessageHeader/04040404-0404-4404-8404-040404040404",
            "method":"PUT"
         }
      },
      {
         "resource":{
            "id":"05050505-0505-4505-8505-050505050505",
            "resourceType":"Device",
            "identifier":[
               {
                  "value":"SIMHOSP",
                  "type":{
                     "coding":[
                        {
                           "system":"http://terminology.hl7.org/CodeSystem/v2-0301"
                        }
                     ]
                  }
               }
            ]
         },
         "request":{
            "url":"Device/05050505-0505-4505-8505-050505050505",
            "method":"PUT"
         }
      },
      {
         "request":{
            "method":"PUT",
            "url":"Provenance/06060606-0606-4606-8606-060606060606"
         },
         "resource":{
            "target":[
               {
                  "reference":"MessageHeader/04040404-0404-4404-8404-040404040404"
               }
            ],
            "id":"06060606-0606-4606-8606-060606060606",
            "resourceType":"Provenance",
            "agent":[
               {
                  "whoReference":{
                     "reference":"Device/05050505-0505-4505-8505-050505050505"
                  }
               }
            ],
            "recorded":"2020-05-26T16:59:46.265526Z"
         }
      },
      {
         "request":{
            "method":"PUT",
            "url":"Organization/08080808-0808-4808-8808-080808080808"
         },
         "resource":{
            "resourceType":"Organization",
            "name":"FAMILY PRACTICE",
            "identifier":[
               {
                  "type":{
                     "coding":[
                        {
                           "system":"http://terminology.hl7.org/CodeSystem/v2-0203"
                        }
                     ]
                  },
                  "value":"12345"
               }
            ],
            "id":"08080808-0808-4808-8808-080808080808"
         }
      },
      {
         "resource":{
            "gender":"female",
            "address":[
               {
                  "city":"Ilford",
                  "postalCode":"JX38 5BL",
                  "country":"GBR",
                  "line":[
                     "18 Peanut House",
                     "Boots Square"
                  ]
               }
            ],
            "generalPractitioner":[
               {
                  "reference":"Organization/08080808-0808-4808-8808-080808080808"
               }
            ],
            "id":"09090909-0909-4909-8909-090909090909",
            "active":true,
            "name":[
               {
                  "use":"anonymous",
                  "family":"Twentyman",
                  "given":[
                     "AKI Scenario 20"
                  ],
                  "prefix":[
                     "Mrs"
                  ]
               }
            ],
            "telecom":[
               {
                  "use":"home",
                  "value":"020 9338 2732"
               }
            ],
            "resourceType":"Patient",
            "identifier":[
               {
                  "value":"2520926396",
                  "type":{
                     "coding":[
                        {
                           "code":"MRN"
                        }
                     ]
                  }
               },
               {
                  "value":"2520926396",
                  "type":{
                     "coding":[
                        {
                           "code":"MRN"
                        }
                     ]
                  }
               },
               {
                  "value":"7044531865",
                  "type":{
                     "coding":[
                        {
                           "code":"NHSNMBR"
                        }
                     ]
                  }
               },
               {
                  "type":{
                     "coding":[
                        {
                           "code":"SB"
                        }
                     ]
                  }
               },
               {
                  "type":{
                     "coding":[
                        {
                           "code":"DL"
                        }
                     ]
                  }
               }
            ],
            "birthDate":"1922-08-23"
         },
         "request":{
            "url":"Patient/09090909-0909-4909-8909-090909090909",
            "method":"PUT"
         }
      },
      {
         "resource":{
            "id":"0a0a0a0a-0a0a-4a0a-8a0a-0a0a0a0a0a0a",
            "resourceType":"Account",
            "subject":{
               "reference":"Patient/09090909-0909-4909-8909-090909090909"
            }
         },
         "request":{
            "method":"PUT",
            "url":"Account/0a0a0a0a-0a0a-4a0a-8a0a-0a0a0a0a0a0a"
         }
      },
      {
         "resource":{
            "id":"0e0e0e0e-0e0e-4e0e-8e0e-0e0e0e0e0e0e",
            "resourceType":"Location",
            "partOf":{
               "reference":"Location/0c0c0c0c-0c0c-4c0c-8c0c-0c0c0c0c0c0c"
            },
            "name":"RenalWard",
            "mode":"instance",
            "physicalType":{
               "coding":[
                  {
                     "system":"http://terminology.hl7.org/CodeSystem/location-physical-type",
                     "code":"si"
                  }
               ]
            }
         },
         "request":{
            "method":"PUT",
            "url":"Location/0e0e0e0e-0e0e-4e0e-8e0e-0e0e0e0e0e0e"
         }
      },
      {
         "resource":{
            "name":"MainRoom",
            "partOf":{
               "reference":"Location/0e0e0e0e-0e0e-4e0e-8e0e-0e0e0e0e0e0e"
            },
            "mode":"instance",
            "physicalType":{
               "coding":[
                  {
                     "code":"ro",
                     "system":"http://terminology.hl7.org/CodeSystem/location-physical-type"
                  }
               ]
            },
            "id":"0f0f0f0f-0f0f-4f0f-8f0f-0f0f0f0f0f0f",
            "resourceType":"Location"
         },
         "request":{
            "url":"Location/0f0f0f0f-0f0f-4f0f-8f0f-0f0f0f0f0f0f",
            "method":"PUT"
         }
      },
      {
         "resource":{
            "mode":"instance",
            "physicalType":{
               "coding":[
                  {
                     "code":"bd",
                     "system":"http://terminology.hl7.org/CodeSystem/location-physical-type"
                  }
               ]
            },
            "id":"10101010-1010-4010-9010-101010101010",
            "resourceType":"Location",
            "name":"Bed 4",
            "partOf":{
               "reference":"Location/0f0f0f0f-0f0f-4f0f-8f0f-0f0f0f0f0f0f"
            }
         },
         "request":{
            "method":"PUT",
            "url":"Location/10101010-1010-4010-9010-101010101010"
         }
      },
      {
         "resource":{
            "id":"0b0b0b0b-0b0b-4b0b-8b0b-0b0b0b0b0b0b",
            "resourceType":"Location",
            "name":"Simulated Hospital",
            "mode":"instance",
            "physicalType":{
               "coding":[
                  {
                     "code":"si",
                     "system":"http://terminology.hl7.org/CodeSystem/location-physical-type"
                  }
               ]
            }
         },
         "request":{
            "method":"PUT",
            "url":"Location/0b0b0b0b-0b0b-4b0b-8b0b-0b0b0b0b0b0b"
         }
      },
      {
         "request":{
            "url":"Location/0c0c0c0c-0c0c-4c0c-8c0c-0c0c0c0c0c0c",
            "method":"PUT"
         },
         "resource":{
            "mode":"instance",
            "physicalType":{
               "coding":[
                  {
                     "system":"http://terminology.hl7.org/CodeSystem/location-physical-type",
                     "code":"bu"
                  }
               ]
            },
            "id":"0c0c0c0c-0c0c-4c0c-8c0c-0c0c0c0c0c0c",
            "resourceType":"Location",
            "name":"Main Building",
            "partOf":{
               "reference":"Location/0b0b0b0b-0b0b-4b0b-8b0b-0b0b0b0b0b0b"
            }
         }
      },
      {
         "resource":{
            "mode":"instance",
            "physicalType":{
               "coding":[
                  {
                     "system":"http://terminology.hl7.org/CodeSystem/location-physical-type",
                     "code":"lvl"
                  }
               ]
            },
            "id":"0d0d0d0d-0d0d-4d0d-8d0d-0d0d0d0d0d0d",
            "resourceType":"Location",
            "partOf":{
               "reference":"Location/0c0c0c0c-0c0c-4c0c-8c0c-0c0c0c0c0c0c"
            },
            "name":"5"
         },
         "request":{
            "url":"Location/0d0d0d0d-0d0d-4d0d-8d0d-0d0d0d0d0d0d",
            "method":"PUT"
         }
      },
      {
         "resource":{
            "resourceType":"Location",
            "partOf":{
               "reference":"Location/12121212-1212-4212-9212-121212121212"
            },
            "mode":"instance",
            "physicalType":{
               "coding":[
                  {
                     "code":"si",
                     "system":"http://terminology.hl7.org/CodeSystem/location-physical-type"
                  }
               ]
            },
            "id":"14141414-1414-4414-9414-141414141414"
         },
         "request":{
            "method":"PUT",
            "url":"Location/14141414-1414-4414-9414-141414141414"
         }
      },
      {
         "resource":{
            "id":"15151515-1515-4515-9515-151515151515",
            "resourceType":"Location",
            "partOf":{
               "reference":"Location/14141414-1414-4414-9414-141414141414"
            },
            "mode":"instance",
            "physicalType":{
               "coding":[
                  {
                     "system":"http://terminology.hl7.org/CodeSystem/location-physical-type",
                     "code":"ro"
                  }
               ]
            }
         },
         "request":{
            "method":"PUT",
            "url":"Location/15151515-1515-4515-9515-151515151515"
         }
      },
      {
         "resource":{
            "mode":"instance",
            "partOf":{
               "reference":"Location/15151515-1515-4515-9515-151515151515"
            },
            "physicalType":{
               "coding":[
                  {
                     "system":"http://terminology.hl7.org/CodeSystem/location-physical-type",
                     "code":"bd"
                  }
               ]
            },
            "id":"16161616-1616-4616-9616-161616161616",
            "resourceType":"Location"
         },
         "request":{
            "method":"PUT",
            "url":"Location/16161616-1616-4616-9616-161616161616"
         }
      },
      {
         "resource":{
            "id":"11111111-1111-4111-9111-111111111111",
            "resourceType":"Location",
            "mode":"instance",
            "physicalType":{
               "coding":[
                  {
                     "code":"si",
                     "system":"http://terminology.hl7.org/CodeSystem/location-physical-type"
                  }
               ]
            }
         },
         "request":{
            "url":"Location/11111111-1111-4111-9111-111111111111",
            "method":"PUT"
         }
      },
      {
         "resource":{
            "partOf":{
               "reference":"Location/11111111-1111-4111-9111-111111111111"
            },
            "resourceType":"Location",
            "mode":"instance",
            "physicalType":{
               "coding":[
                  {
                     "code":"bu",
                     "system":"http://terminology.hl7.org/CodeSystem/location-physical-type"
                  }
               ]
            },
            "id":"12121212-1212-4212-9212-121212121212"
         },
         "request":{
            "method":"PUT",
            "url":"Location/12121212-1212-4212-9212-121212121212"
         }
      },
      {
         "resource":{
            "id":"13131313-1313-4313-9313-131313131313",
            "resourceType":"Location",
            "partOf":{
               "reference":"Location/12121212-1212-4212-9212-121212121212"
            },
            "mode":"instance",
            "physicalType":{
               "coding":[
                  {
                     "code":"lvl",
                     "system":"http://terminology.hl7.org/CodeSystem/location-physical-type"
                  }
               ]
            }
         },
         "request":{
            "method":"PUT",
            "url":"Location/13131313-1313-4313-9313-131313131313"
         }
      },
      {
         "request":{
            "method":"PUT",
            "url":"Practitioner/17171717-1717-4717-9717-171717171717"
         },
         "resource":{
            "identifier":[
               {
                  "type":{
                     "coding":[
                        {
                           "code":"ORGDR"
                        }
                     ]
                  },
                  "value":"C002"
               }
            ],
            "name":[
               {
                  "given":[
                     "Elizabeth"
                  ],
                  "prefix":[
                     "Dr"
                  ],
                  "use":"anonymous",
                  "family":"Smith"
               }
            ],
            "id":"17171717-1717-4717-9717-171717171717",
            "resourceType":"Practitioner"
         }
      },
      {
         "resource":{
            "resourceType":"Location",
            "id":"18181818-1818-4818-9818-181818181818"
         },
         "request":{
            "url":"Location/18181818-1818-4818-9818-181818181818",
            "method":"PUT"
         }
      },
      {
         "request":{
            "method":"PUT",
            "url":"EpisodeOfCare/19191919-1919-4919-9919-191919191919"
         },
         "resource":{
            "patient":{
               "reference":"Patient/09090909-0909-4909-8909-090909090909"
            },
            "id":"19191919-1919-4919-9919-191919191919",
            "resourceType":"EpisodeOfCare",
            "status":"finished"
         }
      },
      {
         "resource":{
            "type":[
               {
                  "coding":[
                     {
                        "code":"28b"
                     }
                  ]
               }
            ],
            "episodeOfCare":[
               {
                  "reference":"EpisodeOfCare/19191919-1919-4919-9919-191919191919"
               }
            ],
            "hospitalization":{
               "destination":{
                  "reference":"Location/18181818-1818-4818-9818-181818181818"
               }
            },
            "id":"1a1a1a1a-1a1a-4a1a-9a1a-1a1a1a1a1a1a",
            "identifier":[
               {
                  "value":"11870689264684613798",
                  "type":{
                     "text":"visit number",
                     "coding":[
                        {
                           "code":"visitid",
                           "system":"http://terminology.hl7.org/CodeSystem/v2-0203"
                        }
                     ]
                  }
               }
            ],
            "resourceType":"Encounter",
            "status":"finished",
            "participant":[
               {
                  "type":[
                     {
                        "coding":[
                           {
                              "system":"http://terminology.hl7.org/CodeSystem/v3-ParticipationType",
                              "display":"attender",
                              "code":"ATND"
                           }
                        ]
                     }
                  ],
                  "individual":{
                     "reference":"Practitioner/17171717-1717-4717-9717-171717171717"
                  }
               }
            ],
            "period":{
               "start":"2020-05-26T16:19:17+05:00",
               "end":"2020-05-26T16:59:46+05:00"
            },
            "subject":{
               "reference":"Patient/09090909-0909-4909-8909-090909090909"
            },
            "class":{
               "version":"v1",
               "display":"inpatient encounter",
               "system":"http://terminology.hl7.org/CodeSystem/v3-ActCode",
               "code":"IMP"
            },
            "location":[
               {
                  "location":{
                     "reference":"Location/0e0e0e0e-0e0e-4e0e-8e0e-0e0e0e0e0e0e"
                  },
                  "status":"active"
               },
               {
                  "location":{
                     "reference":"Location/0f0f0f0f-0f0f-4f0f-8f0f-0f0f0f0f0f0f"
                  },
                  "status":"active"
               },
               {
                  "status":"active",
                  "location":{
                     "reference":"Location/10101010-1010-4010-9010-101010101010"
                  }
               },
               {
                  "location":{
                     "reference":"Location/0b0b0b0b-0b0b-4b0b-8b0b-0b0b0b0b0b0b"
                  },
                  "status":"active"
               },
               {
                  "location":{
                     "reference":"Location/0c0c0c0c-0c0c-4c0c-8c0c-0c0c0c0c0c0c"
                  },
                  "status":"active"
               },
               {
                  "status":"active",
                  "location":{
                     "reference":"Location/0d0d0d0d-0d0d-4d0d-8d0d-0d0d0d0d0d0d"
                  }
               },
               {
                  "status":"completed",
                  "location":{
                     "reference":"Location/14141414-1414-4414-9414-141414141414"
                  }
               },
               {
                  "status":"completed",
                  "location":{
                     "reference":"Location/15151515-1515-4515-9515-151515151515"
                  }
               },
               {
                  "status":"completed",
                  "location":{
                     "reference":"Location/16161616-1616-4616-9616-161616161616"
                  }
               },
               {
                  "status":"completed",
                  "location":{
                     "reference":"Location/11111111-1111-4111-9111-111111111111"
                  }
               },
               {
                  "location":{
                     "reference":"Location/12121212-1212-4212-9212-121212121212"
                  },
                  "status":"completed"
               },
               {
                  "status":"completed",
                  "location":{
                     "reference":"Location/13131313-1313-4313-9313-131313131313"
                  }
               }
            ]
         },
         "request":{
            "method":"PUT",
            "url":"Encounter/1a1a1a1a-1a1a-4a1a-9a1a-1a1a1a1a1a1a"
         }
      },
      {
         "resource":{
            "category":[
               "food"
            ],
            "id":"1b1b1b1b-1b1b-4b1b-9b1b-1b1b1b1b1b1b",
            "verificationStatus":"confirmed",
            "resourceType":"AllergyIntolerance",
            "onsetDateTime":"2019-09-17T16:19:18+09:00",
            "patient":{
               "reference":"Patient/09090909-0909-4909-8909-090909090909"
            },
            "type":"allergy",
            "code":{
               "coding":[
                  {
                     "system":"SNM3",
                     "code":"418471000",
                     "display":"Propensity to adverse reactions to food (disorder)"
                  }
               ]
            },
            "reaction":[
               {
                  "manifestation":[
                     {
                        "text":"Place Holder"
                     }
                  ],
                  "severity":"moderate"
               }
            ]
         },
         "request":{
            "url":"AllergyIntolerance/1b1b1b1b-1b1b-4b1b-9b1b-1b1b1b1b1b1b",
            "method":"PUT"
         }
      },
      {
         "resource":{
            "id":"1c1c1c1c-1c1c-4c1c-9c1c-1c1c1c1c1c1c",
            "type":"allergy",
            "code":{
               "coding":[
                  {
                     "code":"59037007",
                     "display":"Drug intolerance (disorder)",
                     "system":"SNM3"
                  }
               ]
            },
            "resourceType":"AllergyIntolerance",
            "onsetDateTime":"2019-06-30T16:19:18+06:00",
            "reaction":[
               {
                  "manifestation":[
                     {
                        "text":"Place Holder"
                     }
                  ],
                  "severity":"severe"
               }
            ],
            "category":[
               "food"
            ],
            "patient":{
               "reference":"Patient/09090909-0909-4909-8909-090909090909"
            },
            "verificationStatus":"confirmed"
         },
         "request":{
            "url":"AllergyIntolerance/1c1c1c1c-1c1c-4c1c-9c1c-1c1c1c1c1c1c",
            "method":"PUT"
         }
      }
   ]
}
