{
   "entry":[
      {
         "resource":{
            "address":[
               {
                  "country":"44"
               }
            ],
            "identifier":[
               {
                  "value":"RAL",
                  "type":{
                     "coding":[
                        {
                           "system":"http://terminology.hl7.org/CodeSystem/v2-0301"
                        }
                     ]
                  }
               },
               {
                  "value":"4.2-two",
                  "type":{
                     "coding":[
                        {
                           "code":"UUID",
                           "system":"http://terminology.hl7.org/CodeSystem/v2-0301"
                        }
                     ]
                  },
                  "system":"urn:ietf:rfc:3986"
               }
            ],
            "id":"01010101-0101-4101-8101-010101010101",
            "resourceType":"Organization"
         },
         "request":{
            "url":"Organization/01010101-0101-4101-8101-010101010101",
            "method":"PUT"
         }
      },
      {
         "resource":{
            "identifier":[
               {
                  "type":{
                     "coding":[
                        {
                           "system":"http://terminology.hl7.org/CodeSystem/v2-0203",
                           "code":"DCode"
                        }
                     ]
                  },
                  "value":"6010"
               }
            ],
            "id":"02020202-0202-4202-8202-020202020202",
            "resourceType":"Organization",
            "name":"Reciever - YIEWSLEY FAMILY PRACTICE"
         },
         "request":{
            "url":"Organization/02020202-0202-4202-8202-020202020202",
            "method":"PUT"
         }
      },
      {
         "resource":{
            "identifier":[
               {
                  "type":{
                     "coding":[
                        {
                           "code":"RCode",
                           "system":"http://terminology.hl7.org/CodeSystem/v2-0203"
                        }
                     ]
                  },
                  "value":"6010"
               }
            ],
            "id":"03030303-0303-4303-8303-030303030303",
            "resourceType":"Organization",
            "name":"Resposible - YIEWSLEY FAMILY PRACTICE"
         },
         "request":{
            "method":"PUT",
            "url":"Organization/03030303-0303-4303-8303-030303030303"
         }
      },
      {
         "resource":{
            "meta":{
               "security":[
                  {
                     "code":"8-Security"
                  }
               ],
               "tag":[
                  {
                     "code":"T",
                     "system":"http://terminology.hl7.org/CodeSystem/v2-0103"
                  },
                  {
                     "system":"http://terminology.hl7.org/CodeSystem/v2-0207",
                     "code":"11.2-processing"
                  }
               ]
            },
            "source":{
               "name":"CERNER",
               "endpoint":"3.2-two"
            },
            "event":{
               "code":"A01",
               "system":"http://terminology.hl7.org/CodeSystem/v2-0003"
            },
            "resourceType":"MessageHeader",
            "receiver":{
               "reference":"Organization/02020202-0202-4202-8202-020202020202"
            },
            "sender":{
               "reference":"Organization/01010101-0101-4101-8101-010101010101"
            },
            "timestamp":"2018-07-25T14:01:56.257725Z",
            "destination":[
               {
                  "name":"STREAMS",
                  "endpoint":"RAL"
               }
            ],
            "language":"ENG",
            "responsible":{
               "reference":"Organization/03030303-0303-4303-8303-030303030303"
            },
            "id":"04040404-0404-4404-8404-040404040404"
         },
         "request":{
            "method":"PUT",
            "url":"MessageHeader/04040404-0404-4404-8404-040404040404"
         }
      },
      {
         "resource":{
            "identifier":[
               {
                  "value":"CERNER",
                  "type":{
                     "coding":[
                        {
                           "system":"http://terminology.hl7.org/CodeSystem/v2-0301"
                        }
                     ]
                  }
               }
            ],
            "id":"05050505-0505-4505-8505-050505050505",
            "resourceType":"Device"
         },
         "request":{
            "url":"Device/05050505-0505-4505-8505-050505050505",
            "method":"PUT"
         }
      },
      {
         "resource":{
            "target":[
               {
                  "reference":"MessageHeader/04040404-0404-4404-8404-040404040404"
               }
            ],
            "id":"06060606-0606-4606-8606-060606060606",
            "resourceType":"Provenance",
            "agent":[
               {
                  "whoReference":{
                     "reference":"Device/05050505-0505-4505-8505-050505050505"
                  }
               }
            ],
            "recorded":"2018-07-25T14:01:56.257725Z"
         },
         "request":{
            "url":"Provenance/06060606-0606-4606-8606-060606060606",
            "method":"PUT"
         }
      },
      {
         "resource":{
            "type":"message",
            "id":"07070707-0707-4707-8707-070707070707",
            "resourceType":"Bundle",
            "identifier":{
               "value":"7"
            }
         },
         "request":{
            "method":"PUT",
            "url":"Bundle/07070707-0707-4707-8707-070707070707"
         }
      },
      {
         "resource":{
            "identifier":[
               {
                  "type":{
                     "coding":[
                        {
                           "system":"http://terminology.hl7.org/CodeSystem/v2-0203",
                           "code":"CLN"
                        }
                     ]
                  },
                  "value":"6020"
               }
            ],
            "id":"08080808-0808-4808-8808-080808080808",
            "resourceType":"Organization",
            "name":"YIEWSLEY FAMILY PRACTICE"
         },
         "request":{
            "method":"PUT",
            "url":"Organization/08080808-0808-4808-8808-080808080808"
         }
      },
      {
         "resource":{
            "identifier":[
               {
                  "type":{
                     "coding":[
                        {
                           "code":"CC"
                        }
                     ]
                  },
                  "value":"C184726198"
               }
            ],
            "name":[
               {
                  "prefix":[
                     "Dr"
                  ],
                  "use":"official",
                  "period":{
                     "start":"2018-07-25T14:01:56+07:00",
                     "end":"2018-07-25T14:01:56+07:00"
                  },
                  "family":"Connell",
                  "given":[
                     "Alistair",
                     "Alex"
                  ],
                  "suffix":[
                     "Sr",
                     "MD",
                     "MSc."
                  ]
               }
            ],
            "id":"09090909-0909-4909-8909-090909090909",
            "resourceType":"Practitioner"
         },
         "request":{
            "method":"PUT",
            "url":"Practitioner/09090909-0909-4909-8909-090909090909"
         }
      },
      {
         "resource":{
            "name":[
               {
                  "family":"Doe",
                  "given":[
                     "Jane",
                     "Janny"
                  ],
                  "suffix":[
                     "Jr",
                     "PhD",
                     "Eng."
                  ],
                  "prefix":[
                     "Miss"
                  ],
                  "use":"anonymous",
                  "period":{
                     "end":"2018-07-25T14:01:56+07:00",
                     "start":"2018-07-25T14:01:56+07:00"
                  }
               },
               {
                  "family":"Al-Doe",
                  "given":[
                     "Al-Jane",
                     "Al-Janny"
                  ],
                  "suffix":[
                     "Al-Jr",
                     "Al-PhD",
                     "Al-Eng."
                  ],
                  "prefix":[
                     "Al-Miss"
                  ],
                  "use":"anonymous",
                  "period":{
                     "end":"2018-07-25T14:01:56+07:00",
                     "start":"2018-07-25T14:01:56+07:00"
                  }
               }
            ],
            "active":true,
            "maritalStatus":{
               "coding":[
                  {
                     "code":"MARRIED"
                  }
               ]
            },
            "id":"0a0a0a0a-0a0a-4a0a-8a0a-0a0a0a0a0a0a",
            "address":[
               {
                  "state":"N/A",
                  "postalCode":"SV20 3BC",
                  "country":"GBR",
                  "period":{
                     "start":"2018-07-25T14:01:56+07:00",
                     "end":"2018-07-25T14:01:56+07:00"
                  },
                  "line":[
                     "25 Dahlia House",
                     "Plough Avenue",
                     "Some Guy"
                  ],
                  "city":"Croydon"
               }
            ],
            "telecom":[
               {
                  "value":"020 0921 5742",
                  "use":"home"
               },
               {
                  "value":"020 0921 5748",
                  "use":"work"
               },
               {
                  "use":"home",
                  "value":"020 0921 5700"
               }
            ],
            "meta":{
               "lastUpdated":"2018-07-25T14:01:56+07:00"
            },
            "identifier":[
               {
                  "value":"1419055458",
                  "type":{
                     "coding":[
                        {
                           "code":"MRN"
                        }
                     ]
                  }
               },
               {
                  "value":"1419055458",
                  "type":{
                     "coding":[
                        {
                           "code":"MRN"
                        }
                     ]
                  }
               },
               {
                  "value":"3870146052",
                  "type":{
                     "coding":[
                        {
                           "code":"NHSNMBR"
                        }
                     ]
                  }
               },
               {
                  "type":{
                     "coding":[
                        {
                           "code":"MRN4"
                        }
                     ]
                  },
                  "value":"1419055459"
               },
               {
                  "type":{
                     "coding":[
                        {
                           "code":"SB"
                        }
                     ]
                  },
                  "value":"SSN-48383"
               },
               {
                  "type":{
                     "coding":[
                        {
                           "code":"DL"
                        }
                     ]
                  },
                  "value":"43211234"
               }
            ],
            "birthDate":"1994-06-15",
            "generalPractitioner":[
               {
                  "reference":"Organization/08080808-0808-4808-8808-080808080808"
               },
               {
                  "reference":"Practitioner/09090909-0909-4909-8909-090909090909"
               }
            ],
            "deceasedDateTime":"2018-07-25T14:01:56+07:00",
            "gender":"female",
            "resourceType":"Patient",
            "multipleBirthInteger":2
         },
         "request":{
            "method":"PUT",
            "url":"Patient/0a0a0a0a-0a0a-4a0a-8a0a-0a0a0a0a0a0a"
         }
      },
      {
         "resource":{
            "id":"0b0b0b0b-0b0b-4b0b-8b0b-0b0b0b0b0b0b",
            "resourceType":"Account",
            "identifier":[
               {
                  "value":"1419055678"
               }
            ],
            "subject":{
               "reference":"Patient/0a0a0a0a-0a0a-4a0a-8a0a-0a0a0a0a0a0a"
            }
         },
         "request":{
            "method":"PUT",
            "url":"Account/0b0b0b0b-0b0b-4b0b-8b0b-0b0b0b0b0b0b"
         }
      },
      {
         "resource":{
            "name":[
               {
                  "family":"Prout",
                  "given":[
                     "J"
                  ],
                  "prefix":[
                     "Dr"
                  ],
                  "use":"anonymous"
               }
            ],
            "id":"0c0c0c0c-0c0c-4c0c-8c0c-0c0c0c0c0c0c",
            "resourceType":"Practitioner",
            "identifier":[
               {
                  "type":{
                     "coding":[
                        {
                           "code":"ORGDR"
                        }
                     ]
                  },
                  "value":"C3557206"
               }
            ]
         },
         "request":{
            "method":"PUT",
            "url":"Practitioner/0c0c0c0c-0c0c-4c0c-8c0c-0c0c0c0c0c0c"
         }
      },
      {
         "resource":{
            "resourceType":"Practitioner",
            "identifier":[
               {
                  "type":{
                     "coding":[
                        {
                           "code":"ORGDR"
                        }
                     ]
                  },
                  "value":"C3557206"
               }
            ],
            "name":[
               {
                  "family":"Prout",
                  "given":[
                     "J"
                  ],
                  "prefix":[
                     "Dr"
                  ],
                  "use":"anonymous"
               }
            ],
            "id":"0e0e0e0e-0e0e-4e0e-8e0e-0e0e0e0e0e0e"
         },
         "request":{
            "method":"PUT",
            "url":"Practitioner/0e0e0e0e-0e0e-4e0e-8e0e-0e0e0e0e0e0e"
         }
      },
      {
         "resource":{
            "identifier":[
               {
                  "value":"EI29202"
               }
            ],
            "subject":{
               "reference":"Patient/0a0a0a0a-0a0a-4a0a-8a0a-0a0a0a0a0a0a"
            },
            "id":"0d0d0d0d-0d0d-4d0d-8d0d-0d0d0d0d0d0d",
            "resourceType":"Condition",
            "code":{
               "text":"Chest pain on breathing",
               "coding":[
                  {
                     "code":"R07.1",
                     "display":"Chest pain on breathing"
                  }
               ]
            },
            "onsetDateTime":"2019-03-09T14:01:56+03:00",
            "asserter":{
               "reference":"Practitioner/0c0c0c0c-0c0c-4c0c-8c0c-0c0c0c0c0c0c"
            }
         },
         "request":{
            "url":"Condition/0d0d0d0d-0d0d-4d0d-8d0d-0d0d0d0d0d0d",
            "method":"PUT"
         }
      },
      {
         "resource":{
            "identifier":[
               {
                  "value":"EI29204"
               }
            ],
            "subject":{
               "reference":"Patient/0a0a0a0a-0a0a-4a0a-8a0a-0a0a0a0a0a0a"
            },
            "id":"0f0f0f0f-0f0f-4f0f-8f0f-0f0f0f0f0f0f",
            "resourceType":"Condition",
            "code":{
               "coding":[
                  {
                     "code":"R07.2",
                     "display":"Chest pain on breathing2"
                  }
               ],
               "text":"Chest pain on breathing2"
            },
            "onsetDateTime":"2019-03-09T14:01:56+03:00",
            "asserter":{
               "reference":"Practitioner/0e0e0e0e-0e0e-4e0e-8e0e-0e0e0e0e0e0e"
            }
         },
         "request":{
            "method":"PUT",
            "url":"Condition/0f0f0f0f-0f0f-4f0f-8f0f-0f0f0f0f0f0f"
         }
      },
      {
         "resource":{
            "physicalType":{
               "coding":[
                  {
                     "code":"si",
                     "system":"http://terminology.hl7.org/CodeSystem/location-physical-type"
                  }
               ]
            },
            "id":"13131313-1313-4313-9313-131313131313",
            "resourceType":"Location",
            "partOf":{
               "reference":"Location/11111111-1111-4111-9111-111111111111"
            },
            "name":"Orthopaedic",
            "mode":"instance"
         },
         "request":{
            "method":"PUT",
            "url":"Location/13131313-1313-4313-9313-131313131313"
         }
      },
      {
         "resource":{
            "partOf":{
               "reference":"Location/13131313-1313-4313-9313-131313131313"
            },
            "physicalType":{
               "coding":[
                  {
                     "code":"ro",
                     "system":"http://terminology.hl7.org/CodeSystem/location-physical-type"
                  }
               ]
            },
            "id":"14141414-1414-4414-9414-141414141414",
            "resourceType":"Location",
            "name":"Bay A",
            "mode":"instance"
         },
         "request":{
            "method":"PUT",
            "url":"Location/14141414-1414-4414-9414-141414141414"
         }
      },
      {
         "resource":{
            "mode":"instance",
            "partOf":{
               "reference":"Location/14141414-1414-4414-9414-141414141414"
            },
            "physicalType":{
               "coding":[
                  {
                     "code":"bd",
                     "system":"http://terminology.hl7.org/CodeSystem/location-physical-type"
                  }
               ]
            },
            "id":"15151515-1515-4515-9515-151515151515",
            "resourceType":"Location",
            "name":"Bed 1"
         },
         "request":{
            "method":"PUT",
            "url":"Location/15151515-1515-4515-9515-151515151515"
         }
      },
      {
         "resource":{
            "id":"10101010-1010-4010-9010-101010101010",
            "resourceType":"Location",
            "name":"Simulated Hospital",
            "mode":"instance",
            "physicalType":{
               "coding":[
                  {
                     "code":"si",
                     "system":"http://terminology.hl7.org/CodeSystem/location-physical-type"
                  }
               ]
            }
         },
         "request":{
            "method":"PUT",
            "url":"Location/10101010-1010-4010-9010-101010101010"
         }
      },
      {
         "resource":{
            "mode":"instance",
            "physicalType":{
               "coding":[
                  {
                     "system":"http://terminology.hl7.org/CodeSystem/location-physical-type",
                     "code":"bu"
                  }
               ]
            },
            "id":"11111111-1111-4111-9111-111111111111",
            "resourceType":"Location",
            "partOf":{
               "reference":"Location/10101010-1010-4010-9010-101010101010"
            },
            "name":"Orthopaedic ward"
         },
         "request":{
            "method":"PUT",
            "url":"Location/11111111-1111-4111-9111-111111111111"
         }
      },
      {
         "request":{
            "url":"Location/12121212-1212-4212-9212-121212121212",
            "method":"PUT"
         },
         "resource":{
            "resourceType":"Location",
            "partOf":{
               "reference":"Location/11111111-1111-4111-9111-111111111111"
            },
            "name":"1",
            "mode":"instance",
            "physicalType":{
               "coding":[
                  {
                     "system":"http://terminology.hl7.org/CodeSystem/location-physical-type",
                     "code":"lvl"
                  }
               ]
            },
            "id":"12121212-1212-4212-9212-121212121212"
         }
      },
      {
         "resource":{
            "mode":"instance",
            "physicalType":{
               "coding":[
                  {
                     "code":"si",
                     "system":"http://terminology.hl7.org/CodeSystem/location-physical-type"
                  }
               ]
            },
            "id":"19191919-1919-4919-9919-191919191919",
            "resourceType":"Location",
            "name":"PV1-6-Orthopaedic",
            "partOf":{
               "reference":"Location/17171717-1717-4717-9717-171717171717"
            }
         },
         "request":{
            "method":"PUT",
            "url":"Location/19191919-1919-4919-9919-191919191919"
         }
      },
      {
         "resource":{
            "name":"PV1-6-Bay A",
            "mode":"instance",
            "physicalType":{
               "coding":[
                  {
                     "system":"http://terminology.hl7.org/CodeSystem/location-physical-type",
                     "code":"ro"
                  }
               ]
            },
            "id":"1a1a1a1a-1a1a-4a1a-9a1a-1a1a1a1a1a1a",
            "resourceType":"Location",
            "partOf":{
               "reference":"Location/19191919-1919-4919-9919-191919191919"
            }
         },
         "request":{
            "method":"PUT",
            "url":"Location/1a1a1a1a-1a1a-4a1a-9a1a-1a1a1a1a1a1a"
         }
      },
      {
         "request":{
            "method":"PUT",
            "url":"Location/1b1b1b1b-1b1b-4b1b-9b1b-1b1b1b1b1b1b"
         },
         "resource":{
            "partOf":{
               "reference":"Location/1a1a1a1a-1a1a-4a1a-9a1a-1a1a1a1a1a1a"
            },
            "resourceType":"Location",
            "name":"PV1-6-Bed 1",
            "mode":"instance",
            "physicalType":{
               "coding":[
                  {
                     "system":"http://terminology.hl7.org/CodeSystem/location-physical-type",
                     "code":"bd"
                  }
               ]
            },
            "id":"1b1b1b1b-1b1b-4b1b-9b1b-1b1b1b1b1b1b"
         }
      },
      {
         "request":{
            "method":"PUT",
            "url":"Location/16161616-1616-4616-9616-161616161616"
         },
         "resource":{
            "name":"PV1-6-Simulated Hospital",
            "mode":"instance",
            "physicalType":{
               "coding":[
                  {
                     "code":"si",
                     "system":"http://terminology.hl7.org/CodeSystem/location-physical-type"
                  }
               ]
            },
            "id":"16161616-1616-4616-9616-161616161616",
            "resourceType":"Location"
         }
      },
      {
         "resource":{
            "mode":"instance",
            "physicalType":{
               "coding":[
                  {
                     "system":"http://terminology.hl7.org/CodeSystem/location-physical-type",
                     "code":"bu"
                  }
               ]
            },
            "id":"17171717-1717-4717-9717-171717171717",
            "resourceType":"Location",
            "partOf":{
               "reference":"Location/16161616-1616-4616-9616-161616161616"
            },
            "name":"PV1-6-Orthopaedic ward"
         },
         "request":{
            "url":"Location/17171717-1717-4717-9717-171717171717",
            "method":"PUT"
         }
      },
      {
         "resource":{
            "physicalType":{
               "coding":[
                  {
                     "code":"lvl",
                     "system":"http://terminology.hl7.org/CodeSystem/location-physical-type"
                  }
               ]
            },
            "id":"18181818-1818-4818-9818-181818181818",
            "resourceType":"Location",
            "partOf":{
               "reference":"Location/17171717-1717-4717-9717-171717171717"
            },
            "name":"PV1-6-0",
            "mode":"instance"
         },
         "request":{
            "method":"PUT",
            "url":"Location/18181818-1818-4818-9818-181818181818"
         }
      },
      {
         "resource":{
            "name":[
               {
                  "use":"official",
                  "period":{
                     "start":"2018-07-25T14:01:56+07:00",
                     "end":"2018-07-25T14:01:56+07:00"
                  },
                  "family":"Connell",
                  "given":[
                     "Alistair",
                     "Alex"
                  ],
                  "suffix":[
                     "Sr",
                     "MD",
                     "MSc."
                  ],
                  "prefix":[
                     "Dr"
                  ]
               }
            ],
            "id":"1c1c1c1c-1c1c-4c1c-9c1c-1c1c1c1c1c1c",
            "resourceType":"Practitioner",
            "identifier":[
               {
                  "type":{
                     "coding":[
                        {
                           "code":"CC"
                        }
                     ]
                  },
                  "value":"C184726198"
               }
            ]
         },
         "request":{
            "method":"PUT",
            "url":"Practitioner/1c1c1c1c-1c1c-4c1c-9c1c-1c1c1c1c1c1c"
         }
      },
      {
         "resource":{
            "resourceType":"Practitioner",
            "identifier":[
               {
                  "value":"C184726198",
                  "type":{
                     "coding":[
                        {
                           "code":"CC"
                        }
                     ]
                  }
               }
            ],
            "name":[
               {
                  "family":"Connell",
                  "given":[
                     "Alistair",
                     "Alex"
                  ],
                  "suffix":[
                     "Sr",
                     "MD",
                     "MSc."
                  ],
                  "prefix":[
                     "Dr"
                  ],
                  "use":"official",
                  "period":{
                     "start":"2018-07-25T14:01:56+07:00",
                     "end":"2018-07-25T14:01:56+07:00"
                  }
               }
            ],
            "id":"1d1d1d1d-1d1d-4d1d-9d1d-1d1d1d1d1d1d"
         },
         "request":{
            "method":"PUT",
            "url":"Practitioner/1d1d1d1d-1d1d-4d1d-9d1d-1d1d1d1d1d1d"
         }
      },
      {
         "resource":{
            "resourceType":"Practitioner",
            "identifier":[
               {
                  "type":{
                     "coding":[
                        {
                           "code":"CC"
                        }
                     ]
                  },
                  "value":"C184726198"
               }
            ],
            "name":[
               {
                  "given":[
                     "Alistair",
                     "Alex"
                  ],
                  "suffix":[
                     "Sr",
                     "MD",
                     "MSc."
                  ],
                  "prefix":[
                     "Dr"
                  ],
                  "use":"official",
                  "period":{
                     "start":"2018-07-25T14:01:56+07:00",
                     "end":"2018-07-25T14:01:56+07:00"
                  },
                  "family":"Connell"
               }
            ],
            "id":"1e1e1e1e-1e1e-4e1e-9e1e-1e1e1e1e1e1e"
         },
         "request":{
            "method":"PUT",
            "url":"Practitioner/1e1e1e1e-1e1e-4e1e-9e1e-1e1e1e1e1e1e"
         }
      },
      {
         "resource":{
            "name":[
               {
                  "period":{
                     "start":"2018-07-25T14:01:56+07:00",
                     "end":"2018-07-25T14:01:56+07:00"
                  },
                  "family":"Connell",
                  "given":[
                     "Alistair",
                     "Alex"
                  ],
                  "suffix":[
                     "Sr",
                     "MD",
                     "MSc."
                  ],
                  "prefix":[
                     "Dr"
                  ],
                  "use":"official"
               }
            ],
            "id":"1f1f1f1f-1f1f-4f1f-9f1f-1f1f1f1f1f1f",
            "resourceType":"Practitioner",
            "identifier":[
               {
                  "value":"C184726198",
                  "type":{
                     "coding":[
                        {
                           "code":"CC"
                        }
                     ]
                  }
               }
            ]
         },
         "request":{
            "method":"PUT",
            "url":"Practitioner/1f1f1f1f-1f1f-4f1f-9f1f-1f1f1f1f1f1f"
         }
      },
      {
         "resource":{
            "identifier":[
               {
                  "value":"New Home"
               }
            ],
            "id":"20202020-2020-4020-a020-202020202020",
            "resourceType":"Location"
         },
         "request":{
            "method":"PUT",
            "url":"Location/20202020-2020-4020-a020-202020202020"
         }
      },
      {
         "resource":{
            "name":[
               {
                  "given":[
                     "Alistair",
                     "Alex"
                  ],
                  "suffix":[
                     "Sr",
                     "MD",
                     "MSc."
                  ],
                  "prefix":[
                     "Dr"
                  ],
                  "use":"official",
                  "period":{
                     "start":"2018-07-25T14:01:56+07:00",
                     "end":"2018-07-25T14:01:56+07:00"
                  },
                  "family":"Connell"
               }
            ],
            "id":"21212121-2121-4121-a121-212121212121",
            "resourceType":"Practitioner",
            "identifier":[
               {
                  "value":"C184726198",
                  "type":{
                     "coding":[
                        {
                           "code":"CC"
                        }
                     ]
                  }
               }
            ]
         },
         "request":{
            "method":"PUT",
            "url":"Practitioner/21212121-2121-4121-a121-212121212121"
         }
      },
      {
         "resource":{
            "identifier":[
               {
                  "type":{
                     "coding":[
                        {
                           "code":"visitid"
                        }
                     ]
                  },
                  "period":{
                     "start":"2018-07-25T14:01:56+07:00",
                     "end":"2018-07-25T14:01:56+07:00"
                  },
                  "value":"5609582645793883000"
               }
            ],
            "status":"finished",
            "diagnosis":[
               {
                  "condition":{
                     "reference":"Condition/0d0d0d0d-0d0d-4d0d-8d0d-0d0d0d0d0d0d"
                  },
                  "role":{
                     "coding":[
                        {
                           "code":"Working"
                        }
                     ]
                  }
               },
               {
                  "condition":{
                     "reference":"Condition/0f0f0f0f-0f0f-4f0f-8f0f-0f0f0f0f0f0f"
                  },
                  "role":{
                     "coding":[
                        {
                           "code":"Working2"
                        }
                     ]
                  }
               }
            ],
            "patient":{
               "reference":"Patient/0a0a0a0a-0a0a-4a0a-8a0a-0a0a0a0a0a0a"
            },
            "id":"22222222-2222-4222-a222-222222222222",
            "resourceType":"EpisodeOfCare"
         },
         "request":{
            "method":"PUT",
            "url":"EpisodeOfCare/22222222-2222-4222-a222-222222222222"
         }
      },
      {
         "resource":{
            "episodeOfCare":[
               {
                  "reference":"EpisodeOfCare/22222222-2222-4222-a222-222222222222"
               }
            ],
            "subject":{
               "reference":"Patient/0a0a0a0a-0a0a-4a0a-8a0a-0a0a0a0a0a0a"
            },
            "type":[
               {
                  "coding":[
                     {
                        "code":"28b"
                     }
                  ]
               }
            ],
            "period":{
               "start":"2019-03-09T13:01:56+03:00",
               "end":"2011-03-09T13:01:56+03:00"
            },
            "id":"23232323-2323-4323-a323-232323232323",
            "resourceType":"Encounter",
            "participant":[
               {
                  "individual":{
                     "reference":"Practitioner/1c1c1c1c-1c1c-4c1c-9c1c-1c1c1c1c1c1c"
                  },
                  "type":[
                     {
                        "coding":[
                           {
                              "code":"ATND",
                              "system":"http://terminology.hl7.org/CodeSystem/v3-ParticipationType",
                              "display":"attender"
                           }
                        ]
                     }
                  ]
               },
               {
                  "individual":{
                     "reference":"Practitioner/1d1d1d1d-1d1d-4d1d-9d1d-1d1d1d1d1d1d"
                  },
                  "type":[
                     {
                        "coding":[
                           {
                              "code":"REF",
                              "system":"http://terminology.hl7.org/CodeSystem/v3-ParticipationType",
                              "display":"referrer"
                           }
                        ]
                     }
                  ]
               },
               {
                  "individual":{
                     "reference":"Practitioner/1e1e1e1e-1e1e-4e1e-9e1e-1e1e1e1e1e1e"
                  },
                  "type":[
                     {
                        "coding":[
                           {
                              "system":"http://terminology.hl7.org/CodeSystem/v3-ParticipationType",
                              "display":"consultant",
                              "code":"CON"
                           }
                        ]
                     }
                  ]
               },
               {
                  "type":[
                     {
                        "coding":[
                           {
                              "display":"admitter",
                              "code":"ADM",
                              "system":"http://terminology.hl7.org/CodeSystem/v3-ParticipationType"
                           }
                        ]
                     }
                  ],
                  "individual":{
                     "reference":"Practitioner/1f1f1f1f-1f1f-4f1f-9f1f-1f1f1f1f1f1f"
                  }
               },
               {
                  "individual":{
                     "reference":"Practitioner/21212121-2121-4121-a121-212121212121"
                  },
                  "type":[
                     {
                        "coding":[
                           {
                              "system":"http://terminology.hl7.org/CodeSystem/v3-ParticipationType",
                              "display":"Participation",
                              "code":"PART"
                           }
                        ]
                     }
                  ]
               }
            ],
            "diagnosis":[
               {
                  "condition":{
                     "reference":"Condition/0d0d0d0d-0d0d-4d0d-8d0d-0d0d0d0d0d0d"
                  }
               },
               {
                  "condition":{
                     "reference":"Condition/0f0f0f0f-0f0f-4f0f-8f0f-0f0f0f0f0f0f"
                  }
               }
            ],
            "identifier":[
               {
                  "value":"5609582645793881888",
                  "type":{
                     "coding":[
                        {
                           "system":"http://terminology.hl7.org/CodeSystem/v2-0203",
                           "code":"visitid"
                        }
                     ],
                     "text":"visit number"
                  },
                  "period":{
                     "start":"2018-07-25T14:01:56+07:00",
                     "end":"2018-07-25T14:01:56+07:00"
                  }
               },
               {
                  "period":{
                     "end":"2018-07-25T14:01:56+07:00",
                     "start":"2018-07-25T14:01:56+07:00"
                  },
                  "value":"5609582645793882000",
                  "type":{
                     "coding":[
                        {
                           "code":"visitid"
                        }
                     ]
                  }
               }
            ],
            "class":{
               "code":"INPATIENT"
            },
            "hospitalization":{
               "dietPreference":[
                  {
                     "coding":[
                        {
                           "code":"Vegi"
                        }
                     ]
                  }
               ],
               "preAdmissionIdentifier":{
                  "value":"PV1-5"
               },
               "reAdmission":{
                  "coding":[
                     {
                        "code":"PV1.13"
                     }
                  ]
               },
               "admitSource":{
                  "coding":[
                     {
                        "code":"PV1.14"
                     }
                  ]
               },
               "dischargeDisposition":{
                  "coding":[
                     {
                        "code":"Ready to go"
                     }
                  ]
               },
               "destination":{
                  "reference":"Location/20202020-2020-4020-a020-202020202020"
               }
            },
            "location":[
               {
                  "location":{
                     "reference":"Location/13131313-1313-4313-9313-131313131313"
                  },
                  "status":"active"
               },
               {
                  "location":{
                     "reference":"Location/14141414-1414-4414-9414-141414141414"
                  },
                  "status":"active"
               },
               {
                  "location":{
                     "reference":"Location/15151515-1515-4515-9515-151515151515"
                  },
                  "status":"active"
               },
               {
                  "status":"active",
                  "location":{
                     "reference":"Location/10101010-1010-4010-9010-101010101010"
                  }
               },
               {
                  "location":{
                     "reference":"Location/11111111-1111-4111-9111-111111111111"
                  },
                  "status":"active"
               },
               {
                  "location":{
                     "reference":"Location/12121212-1212-4212-9212-121212121212"
                  },
                  "status":"active"
               },
               {
                  "location":{
                     "reference":"Location/19191919-1919-4919-9919-191919191919"
                  },
                  "status":"completed"
               },
               {
                  "location":{
                     "reference":"Location/1a1a1a1a-1a1a-4a1a-9a1a-1a1a1a1a1a1a"
                  },
                  "status":"completed"
               },
               {
                  "status":"completed",
                  "location":{
                     "reference":"Location/1b1b1b1b-1b1b-4b1b-9b1b-1b1b1b1b1b1b"
                  }
               },
               {
                  "status":"completed",
                  "location":{
                     "reference":"Location/16161616-1616-4616-9616-161616161616"
                  }
               },
               {
                  "status":"completed",
                  "location":{
                     "reference":"Location/17171717-1717-4717-9717-171717171717"
                  }
               },
               {
                  "status":"completed",
                  "location":{
                     "reference":"Location/18181818-1818-4818-9818-181818181818"
                  }
               }
            ],
            "status":"finished"
         },
         "request":{
            "method":"PUT",
            "url":"Encounter/23232323-2323-4323-a323-232323232323"
         }
      },
      {
         "resource":{
            "reaction":[
               {
                  "severity":"SEVERE",
                  "manifestation":[
                     {
                        "text":"Place Holder"
                     }
                  ]
               }
            ],
            "patient":{
               "reference":"Patient/0a0a0a0a-0a0a-4a0a-8a0a-0a0a0a0a0a0a"
            },
            "id":"24242424-2424-4424-a424-242424242424",
            "resourceType":"AllergyIntolerance",
            "category":[
               "environment"
            ],
            "type":"allergy",
            "code":{
               "coding":[
                  {
                     "code":"Z88.0",
                     "display":"Personal history of allergy to penicillin",
                     "system":"ZAL"
                  }
               ]
            },
            "verificationStatus":"confirmed"
         },
         "request":{
            "method":"PUT",
            "url":"AllergyIntolerance/24242424-2424-4424-a424-242424242424"
         }
      },
      {
         "resource":{
            "patient":{
               "reference":"Patient/0a0a0a0a-0a0a-4a0a-8a0a-0a0a0a0a0a0a"
            },
            "id":"25252525-2525-4525-a525-252525252525",
            "resourceType":"AllergyIntolerance",
            "category":[
               "environment"
            ],
            "type":"allergy",
            "code":{
               "coding":[
                  {
                     "system":"ZAL",
                     "code":"T63.441A",
                     "display":"Toxic effect of venom of bees"
                  }
               ]
            },
            "verificationStatus":"confirmed",
            "reaction":[
               {
                  "manifestation":[
                     {
                        "text":"Place Holder"
                     }
                  ],
                  "severity":"MODERATE"
               }
            ]
         },
         "request":{
            "method":"PUT",
            "url":"AllergyIntolerance/25252525-2525-4525-a525-252525252525"
         }
      },
      {
         "resource":{
            "type":"allergy",
            "code":{
               "coding":[
                  {
                     "display":"Personal history of allergy to sea food",
                     "system":"ZAL",
                     "code":"Z91.013"
                  }
               ]
            },
            "verificationStatus":"confirmed",
            "reaction":[
               {
                  "manifestation":[
                     {
                        "text":"Place Holder"
                     }
                  ],
                  "severity":"SEVERE"
               }
            ],
            "patient":{
               "reference":"Patient/0a0a0a0a-0a0a-4a0a-8a0a-0a0a0a0a0a0a"
            },
            "id":"26262626-2626-4626-a626-262626262626",
            "resourceType":"AllergyIntolerance",
            "category":[
               "environment"
            ]
         },
         "request":{
            "method":"PUT",
            "url":"AllergyIntolerance/26262626-2626-4626-a626-262626262626"
         }
      },
      {
         "resource":{
            "resourceType":"AllergyIntolerance",
            "category":[
               "environment"
            ],
            "type":"allergy",
            "code":{
               "coding":[
                  {
                     "display":"Latex allergy",
                     "system":"ZAL",
                     "code":"Z91.040"
                  }
               ]
            },
            "verificationStatus":"confirmed",
            "reaction":[
               {
                  "severity":"MODERATE",
                  "manifestation":[
                     {
                        "text":"Place Holder"
                     }
                  ]
               }
            ],
            "patient":{
               "reference":"Patient/0a0a0a0a-0a0a-4a0a-8a0a-0a0a0a0a0a0a"
            },
            "id":"27272727-2727-4727-a727-272727272727"
         },
         "request":{
            "method":"PUT",
            "url":"AllergyIntolerance/27272727-2727-4727-a727-272727272727"
         }
      },
      {
         "resource":{
            "identifier":[
               {
                  "type":{
                     "coding":[
                        {
                           "system":"http://terminology.hl7.org/CodeSystem/v2-0203"
                        }
                     ]
                  }
               }
            ],
            "id":"28282828-2828-4828-a828-282828282828",
            "resourceType":"Organization"
         },
         "request":{
            "method":"PUT",
            "url":"Organization/28282828-2828-4828-a828-282828282828"
         }
      },
      {
         "resource":{
            "resourceType":"Practitioner",
            "name":[
               {
                  "use":"anonymous"
               }
            ],
            "id":"29292929-2929-4929-a929-292929292929"
         },
         "request":{
            "method":"PUT",
            "url":"Practitioner/29292929-2929-4929-a929-292929292929"
         }
      },
      {
         "resource":{
            "identifier":[
               {
                  "type":{
                     "coding":[
                        {
                           "system":"http://terminology.hl7.org/CodeSystem/v2-0203"
                        }
                     ]
                  }
               }
            ],
            "id":"2b2b2b2b-2b2b-4b2b-ab2b-2b2b2b2b2b2b",
            "resourceType":"Organization"
         },
         "request":{
            "method":"PUT",
            "url":"Organization/2b2b2b2b-2b2b-4b2b-ab2b-2b2b2b2b2b2b"
         }
      },
      {
         "resource":{
            "name":[
               {
                  "use":"anonymous"
               }
            ],
            "id":"2c2c2c2c-2c2c-4c2c-ac2c-2c2c2c2c2c2c",
            "resourceType":"Practitioner"
         },
         "request":{
            "url":"Practitioner/2c2c2c2c-2c2c-4c2c-ac2c-2c2c2c2c2c2c",
            "method":"PUT"
         }
      },
      {
         "resource":{
            "resourceType":"Observation",
            "code":{
               "coding":[
                  {
                     "display":"XCHES",
                     "system":"WinPath",
                     "code":"7475632"
                  }
               ]
            },
            "performer":[
               {
                  "reference":"Organization/28282828-2828-4828-a828-282828282828"
               },
               {
                  "reference":"Practitioner/29292929-2929-4929-a929-292929292929"
               }
            ],
            "id":"2a2a2a2a-2a2a-4a2a-aa2a-2a2a2a2a2a2a",
            "effectiveDateTime":"2019-03-11T14:25:58+03:00",
            "identifier":[
               {
                  "type":{
                     "coding":[
                        {
                           "code":"FILL"
                        }
                     ]
                  }
               }
            ],
            "status":"final",
            "valueString":"1. Clear both lung fields and costophrenic angles. Normal cardiac size and shape",
            "subject":{
               "reference":"Patient/0a0a0a0a-0a0a-4a0a-8a0a-0a0a0a0a0a0a"
            }
         },
         "request":{
            "method":"PUT",
            "url":"Observation/2a2a2a2a-2a2a-4a2a-aa2a-2a2a2a2a2a2a"
         }
      },
      {
         "resource":{
            "effectiveDateTime":"2019-03-11T14:25:58+03:00",
            "subject":{
               "reference":"Patient/0a0a0a0a-0a0a-4a0a-8a0a-0a0a0a0a0a0a"
            },
            "code":{
               "coding":[
                  {
                     "code":"7475632",
                     "display":"XCHES",
                     "system":"WinPath"
                  }
               ]
            },
            "valueString":"2. Clear both lung fields and costophrenic angles. Normal cardiac size and shape",
            "status":"final",
            "performer":[
               {
                  "reference":"Organization/2b2b2b2b-2b2b-4b2b-ab2b-2b2b2b2b2b2b"
               },
               {
                  "reference":"Practitioner/2c2c2c2c-2c2c-4c2c-ac2c-2c2c2c2c2c2c"
               }
            ],
            "resourceType":"Observation",
            "id":"2d2d2d2d-2d2d-4d2d-ad2d-2d2d2d2d2d2d",
            "identifier":[
               {
                  "type":{
                     "coding":[
                        {
                           "code":"FILL"
                        }
                     ]
                  }
               }
            ]
         },
         "request":{
            "method":"PUT",
            "url":"Observation/2d2d2d2d-2d2d-4d2d-ad2d-2d2d2d2d2d2d"
         }
      }
   ],
   "resourceType":"Bundle",
   "type":"transaction"
}
