{
   "identifier":{
      "value":"8899-39"
   },
   "resourceType":"Bundle",
   "type":"transaction",
   "entry":[
      {
         "resource":{
            "id":"01010101-0101-4101-8101-010101010101",
            "resourceType":"Organization",
            "identifier":[
               {
                  "value":"Ntierprise Clinic"
               }
            ]
         },
         "request":{
            "url":"Organization/01010101-0101-4101-8101-010101010101",
            "method":"PUT"
         }
      },
      {
         "request":{
            "url":"Organization/02020202-0202-4202-8202-020202020202",
            "method":"PUT"
         },
         "resource":{
            "id":"02020202-0202-4202-8202-020202020202",
            "resourceType":"Organization",
            "identifier":[
               {
                  "value":"Healthmatics Clinic"
               }
            ]
         }
      },
      {
         "resource":{
            "destination":[
               {
                  "name":"Healthmatics EHR",
                  "endpoint":"Healthmatics Clinic"
               }
            ],
            "event":{
               "code":"A08",
               "system":"http://terminology.hl7.org/CodeSystem/v2-0003"
            },
            "source":{
               "name":"Ntierprise",
               "endpoint":"unknown"
            },
            "receiver":{
               "reference":"Organization/02020202-0202-4202-8202-020202020202"
            },
            "timestamp":"2019-04-23T11:39:10.234423Z",
            "resourceType":"MessageHeader",
            "sender":{
               "reference":"Organization/01010101-0101-4101-8101-010101010101"
            },
            "id":"03030303-0303-4303-8303-030303030303",
            "meta":{
               "tag":[
                  {
                     "system":"http://terminology.hl7.org/CodeSystem/v2-0103",
                     "code":"P"
                  },
                  {
                     "system":"http://terminology.hl7.org/CodeSystem/v2-0207"
                  }
               ]
            }
         },
         "request":{
            "url":"MessageHeader/03030303-0303-4303-8303-030303030303",
            "method":"PUT"
         }
      },
      {
         "resource":{
            "identifier":[
               {
                  "value":"Ntierprise"
               }
            ],
            "id":"04040404-0404-4404-8404-040404040404",
            "resourceType":"Device"
         },
         "request":{
            "url":"Device/04040404-0404-4404-8404-040404040404",
            "method":"PUT"
         }
      },
      {
         "resource":{
            "agent":[
               {
                  "whoReference":{
                     "reference":"Device/04040404-0404-4404-8404-040404040404"
                  }
               }
            ],
            "recorded":"2019-04-23T11:39:10.234423Z",
            "target":[
               {
                  "reference":"MessageHeader/03030303-0303-4303-8303-030303030303"
               }
            ],
            "id":"05050505-0505-4505-8505-050505050505",
            "resourceType":"Provenance"
         },
         "request":{
            "method":"PUT",
            "url":"Provenance/05050505-0505-4505-8505-050505050505"
         }
      },
      {
         "resource":{
            "active":true,
            "gender":"male",
            "birthDate":"1999-07-23",
            "name":[
               {
                  "given":[
                     "Tiny"
                  ],
                  "family":"Bond"
               }
            ],
            "deceasedBoolean":false,
            "resourceType":"Patient",
            "identifier":[
               {
                  "value":"151"
               },
               {
                  "type":{
                     "coding":[
                        {
                           "code":"SB"
                        }
                     ]
                  }
               },
               {
                  "type":{
                     "coding":[
                        {
                           "code":"DL"
                        }
                     ]
                  }
               }
            ],
            "id":"07070707-0707-4707-8707-070707070707",
            "address":[
               {
                  "state":"NC",
                  "postalCode":"27677",
                  "line":[
                     "8388 Secret Agent Way"
                  ],
                  "city":"Raleigh"
               }
            ]
         },
         "request":{
            "method":"PUT",
            "url":"Patient/07070707-0707-4707-8707-070707070707"
         }
      },
      {
         "resource":{
            "resourceType":"Account",
            "identifier":[
               {
                  "value":"151"
               }
            ],
            "subject":{
               "reference":"Patient/07070707-0707-4707-8707-070707070707"
            },
            "id":"08080808-0808-4808-8808-080808080808"
         },
         "request":{
            "method":"PUT",
            "url":"Account/08080808-0808-4808-8808-080808080808"
         }
      },
      {
         "request":{
            "method":"PUT",
            "url":"Practitioner/09090909-0909-4909-8909-090909090909"
         },
         "resource":{
            "identifier":[
               {
                  "value":"Manning"
               }
            ],
            "name":[
               {
                  "given":[
                     "Terry"
                  ],
                  "family":"Manning"
               }
            ],
            "id":"09090909-0909-4909-8909-090909090909",
            "resourceType":"Practitioner"
         }
      },
      {
         "request":{
            "method":"PUT",
            "url":"Encounter/0a0a0a0a-0a0a-4a0a-8a0a-0a0a0a0a0a0a"
         },
         "resource":{
            "subject":{
               "reference":"Patient/07070707-0707-4707-8707-070707070707"
            },
            "id":"0a0a0a0a-0a0a-4a0a-8a0a-0a0a0a0a0a0a",
            "resourceType":"Encounter",
            "class":{
               "code":"unknown",
               "version":"v1",
               "display":"",
               "system":"http://terminology.hl7.org/CodeSystem/v3-ActCode"
            },
            "participant":[
               {
                  "individual":{
                     "reference":"Practitioner/09090909-0909-4909-8909-090909090909"
                  },
                  "type":[
                     {
                        "coding":[
                           {
                              "code":"ATND",
                              "system":"http://terminology.hl7.org/CodeSystem/v3-ParticipationType",
                              "display":"attender"
                           }
                        ]
                     }
                  ]
               }
            ],
            "identifier":[
               {
                  "type":{
                     "text":"visit number",
                     "coding":[
                        {
                           "system":"http://terminology.hl7.org/CodeSystem/v2-0203",
                           "code":"VN"
                        }
                     ]
                  }
               }
            ],
            "status":"in-progress"
         }
      }
   ]
}
