{
   "identifier":{
      "value":"8899-39"
   },
   "resourceType":"Bundle",
   "type":"transaction",
   "entry":[
      {
         "resource":{
            "identifier":[
               {
                  "type":{
                     "coding":[
                        {
                           "system":"http://terminology.hl7.org/CodeSystem/v2-0301"
                        }
                     ]
                  },
                  "value":"Ntierprise Clinic"
               },
               {
                  "type":{
                     "coding":[
                        {
                           "system":"http://terminology.hl7.org/CodeSystem/v2-0301"
                        }
                     ]
                  }
               }
            ],
            "id":"01010101-0101-4101-8101-010101010101",
            "resourceType":"Organization"
         },
         "request":{
            "method":"PUT",
            "url":"Organization/01010101-0101-4101-8101-010101010101"
         }
      },
      {
         "resource":{
            "identifier":[
               {
                  "type":{
                     "coding":[
                        {
                           "system":"http://terminology.hl7.org/CodeSystem/v2-0301"
                        }
                     ]
                  },
                  "value":"Healthmatics Clinic"
               },
               {
                  "type":{
                     "coding":[
                        {
                           "system":"http://terminology.hl7.org/CodeSystem/v2-0301"
                        }
                     ]
                  }
               }
            ],
            "id":"02020202-0202-4202-8202-020202020202",
            "resourceType":"Organization"
         },
         "request":{
            "url":"Organization/02020202-0202-4202-8202-020202020202",
            "method":"PUT"
         }
      },
      {
         "resource":{
            "id":"03030303-0303-4303-8303-030303030303",
            "resourceType":"Organization",
            "identifier":[
               {
                  "type":{
                     "coding":[
                        {
                           "system":"http://terminology.hl7.org/CodeSystem/v2-0203"
                        }
                     ]
                  }
               }
            ]
         },
         "request":{
            "method":"PUT",
            "url":"Organization/03030303-0303-4303-8303-030303030303"
         }
      },
      {
         "resource":{
            "source":{
               "endpoint":"unknown",
               "name":"Ntierprise"
            },
            "sender":{
               "reference":"Organization/01010101-0101-4101-8101-010101010101"
            },
            "receiver":{
               "reference":"Organization/02020202-0202-4202-8202-020202020202"
            },
            "timestamp":"2019-04-23T11:39:10.234423Z",
            "destination":[
               {
                  "name":"Healthmatics EHR",
                  "endpoint":"Healthmatics Clinic"
               }
            ],
            "responsible":{
               "reference":"Organization/03030303-0303-4303-8303-030303030303"
            },
            "resourceType":"MessageHeader",
            "id":"04040404-0404-4404-8404-040404040404",
            "meta":{
               "tag":[
                  {
                     "system":"http://terminology.hl7.org/CodeSystem/v2-0103",
                     "code":"P"
                  },
                  {
                     "system":"http://terminology.hl7.org/CodeSystem/v2-0207"
                  }
               ]
            },
            "event":{
               "code":"A08",
               "system":"http://terminology.hl7.org/CodeSystem/v2-0003"
            }
         },
         "request":{
            "method":"PUT",
            "url":"MessageHeader/04040404-0404-4404-8404-040404040404"
         }
      },
      {
         "resource":{
            "resourceType":"Device",
            "identifier":[
               {
                  "type":{
                     "coding":[
                        {
                           "system":"http://terminology.hl7.org/CodeSystem/v2-0301"
                        }
                     ]
                  },
                  "value":"Ntierprise"
               }
            ],
            "id":"05050505-0505-4505-8505-050505050505"
         },
         "request":{
            "url":"Device/05050505-0505-4505-8505-050505050505",
            "method":"PUT"
         }
      },
      {
         "request":{
            "method":"PUT",
            "url":"Provenance/06060606-0606-4606-8606-060606060606"
         },
         "resource":{
            "resourceType":"Provenance",
            "agent":[
               {
                  "whoReference":{
                     "reference":"Device/05050505-0505-4505-8505-050505050505"
                  }
               }
            ],
            "recorded":"2019-04-23T11:39:10.234423Z",
            "target":[
               {
                  "reference":"MessageHeader/04040404-0404-4404-8404-040404040404"
               }
            ],
            "id":"06060606-0606-4606-8606-060606060606"
         }
      },
      {
         "request":{
            "url":"Patient/08080808-0808-4808-8808-080808080808",
            "method":"PUT"
         },
         "resource":{
            "birthDate":"1999-07-23",
            "gender":"male",
            "id":"08080808-0808-4808-8808-080808080808",
            "active":true,
            "address":[
               {
                  "line":[
                     "8388 Secret Agent Way"
                  ],
                  "city":"Raleigh",
                  "state":"NC",
                  "postalCode":"27677"
               }
            ],
            "resourceType":"Patient",
            "name":[
               {
                  "given":[
                     "Tiny"
                  ],
                  "use":"anonymous",
                  "family":"Bond"
               }
            ],
            "identifier":[
               {
                  "value":"151"
               },
               {
                  "type":{
                     "coding":[
                        {
                           "code":"SB"
                        }
                     ]
                  }
               },
               {
                  "type":{
                     "coding":[
                        {
                           "code":"DL"
                        }
                     ]
                  }
               }
            ],
            "deceasedBoolean":false
         }
      },
      {
         "resource":{
            "subject":{
               "reference":"Patient/08080808-0808-4808-8808-080808080808"
            },
            "id":"09090909-0909-4909-8909-090909090909",
            "resourceType":"Account",
            "identifier":[
               {
                  "value":"151"
               }
            ]
         },
         "request":{
            "method":"PUT",
            "url":"Account/09090909-0909-4909-8909-090909090909"
         }
      },
      {
         "request":{
            "method":"PUT",
            "url":"Location/0d0d0d0d-0d0d-4d0d-8d0d-0d0d0d0d0d0d"
         },
         "resource":{
            "resourceType":"Location",
            "mode":"instance",
            "partOf":{
               "reference":"Location/0b0b0b0b-0b0b-4b0b-8b0b-0b0b0b0b0b0b"
            },
            "physicalType":{
               "coding":[
                  {
                     "code":"si",
                     "system":"http://terminology.hl7.org/CodeSystem/location-physical-type"
                  }
               ]
            },
            "id":"0d0d0d0d-0d0d-4d0d-8d0d-0d0d0d0d0d0d"
         }
      },
      {
         "request":{
            "method":"PUT",
            "url":"Location/0e0e0e0e-0e0e-4e0e-8e0e-0e0e0e0e0e0e"
         },
         "resource":{
            "resourceType":"Location",
            "partOf":{
               "reference":"Location/0d0d0d0d-0d0d-4d0d-8d0d-0d0d0d0d0d0d"
            },
            "mode":"instance",
            "physicalType":{
               "coding":[
                  {
                     "system":"http://terminology.hl7.org/CodeSystem/location-physical-type",
                     "code":"ro"
                  }
               ]
            },
            "id":"0e0e0e0e-0e0e-4e0e-8e0e-0e0e0e0e0e0e"
         }
      },
      {
         "resource":{
            "physicalType":{
               "coding":[
                  {
                     "code":"bd",
                     "system":"http://terminology.hl7.org/CodeSystem/location-physical-type"
                  }
               ]
            },
            "id":"0f0f0f0f-0f0f-4f0f-8f0f-0f0f0f0f0f0f",
            "resourceType":"Location",
            "partOf":{
               "reference":"Location/0e0e0e0e-0e0e-4e0e-8e0e-0e0e0e0e0e0e"
            },
            "mode":"instance"
         },
         "request":{
            "method":"PUT",
            "url":"Location/0f0f0f0f-0f0f-4f0f-8f0f-0f0f0f0f0f0f"
         }
      },
      {
         "resource":{
            "id":"0a0a0a0a-0a0a-4a0a-8a0a-0a0a0a0a0a0a",
            "resourceType":"Location",
            "mode":"instance",
            "physicalType":{
               "coding":[
                  {
                     "code":"si",
                     "system":"http://terminology.hl7.org/CodeSystem/location-physical-type"
                  }
               ]
            }
         },
         "request":{
            "url":"Location/0a0a0a0a-0a0a-4a0a-8a0a-0a0a0a0a0a0a",
            "method":"PUT"
         }
      },
      {
         "request":{
            "method":"PUT",
            "url":"Location/0b0b0b0b-0b0b-4b0b-8b0b-0b0b0b0b0b0b"
         },
         "resource":{
            "partOf":{
               "reference":"Location/0a0a0a0a-0a0a-4a0a-8a0a-0a0a0a0a0a0a"
            },
            "physicalType":{
               "coding":[
                  {
                     "code":"bu",
                     "system":"http://terminology.hl7.org/CodeSystem/location-physical-type"
                  }
               ]
            },
            "id":"0b0b0b0b-0b0b-4b0b-8b0b-0b0b0b0b0b0b",
            "resourceType":"Location",
            "mode":"instance"
         }
      },
      {
         "resource":{
            "physicalType":{
               "coding":[
                  {
                     "code":"lvl",
                     "system":"http://terminology.hl7.org/CodeSystem/location-physical-type"
                  }
               ]
            },
            "partOf":{
               "reference":"Location/0b0b0b0b-0b0b-4b0b-8b0b-0b0b0b0b0b0b"
            },
            "id":"0c0c0c0c-0c0c-4c0c-8c0c-0c0c0c0c0c0c",
            "resourceType":"Location",
            "mode":"instance"
         },
         "request":{
            "method":"PUT",
            "url":"Location/0c0c0c0c-0c0c-4c0c-8c0c-0c0c0c0c0c0c"
         }
      },
      {
         "request":{
            "url":"Location/13131313-1313-4313-9313-131313131313",
            "method":"PUT"
         },
         "resource":{
            "partOf":{
               "reference":"Location/11111111-1111-4111-9111-111111111111"
            },
            "id":"13131313-1313-4313-9313-131313131313",
            "resourceType":"Location",
            "mode":"instance",
            "physicalType":{
               "coding":[
                  {
                     "system":"http://terminology.hl7.org/CodeSystem/location-physical-type",
                     "code":"si"
                  }
               ]
            }
         }
      },
      {
         "resource":{
            "partOf":{
               "reference":"Location/13131313-1313-4313-9313-131313131313"
            },
            "physicalType":{
               "coding":[
                  {
                     "code":"ro",
                     "system":"http://terminology.hl7.org/CodeSystem/location-physical-type"
                  }
               ]
            },
            "id":"14141414-1414-4414-9414-141414141414",
            "resourceType":"Location",
            "mode":"instance"
         },
         "request":{
            "url":"Location/14141414-1414-4414-9414-141414141414",
            "method":"PUT"
         }
      },
      {
         "resource":{
            "partOf":{
               "reference":"Location/14141414-1414-4414-9414-141414141414"
            },
            "id":"15151515-1515-4515-9515-151515151515",
            "resourceType":"Location",
            "mode":"instance",
            "physicalType":{
               "coding":[
                  {
                     "code":"bd",
                     "system":"http://terminology.hl7.org/CodeSystem/location-physical-type"
                  }
               ]
            }
         },
         "request":{
            "method":"PUT",
            "url":"Location/15151515-1515-4515-9515-151515151515"
         }
      },
      {
         "request":{
            "method":"PUT",
            "url":"Location/10101010-1010-4010-9010-101010101010"
         },
         "resource":{
            "id":"10101010-1010-4010-9010-101010101010",
            "resourceType":"Location",
            "mode":"instance",
            "physicalType":{
               "coding":[
                  {
                     "code":"si",
                     "system":"http://terminology.hl7.org/CodeSystem/location-physical-type"
                  }
               ]
            }
         }
      },
      {
         "resource":{
            "physicalType":{
               "coding":[
                  {
                     "code":"bu",
                     "system":"http://terminology.hl7.org/CodeSystem/location-physical-type"
                  }
               ]
            },
            "partOf":{
               "reference":"Location/10101010-1010-4010-9010-101010101010"
            },
            "id":"11111111-1111-4111-9111-111111111111",
            "resourceType":"Location",
            "mode":"instance"
         },
         "request":{
            "url":"Location/11111111-1111-4111-9111-111111111111",
            "method":"PUT"
         }
      },
      {
         "request":{
            "method":"PUT",
            "url":"Location/12121212-1212-4212-9212-121212121212"
         },
         "resource":{
            "mode":"instance",
            "physicalType":{
               "coding":[
                  {
                     "system":"http://terminology.hl7.org/CodeSystem/location-physical-type",
                     "code":"lvl"
                  }
               ]
            },
            "id":"12121212-1212-4212-9212-121212121212",
            "partOf":{
               "reference":"Location/11111111-1111-4111-9111-111111111111"
            },
            "resourceType":"Location"
         }
      },
      {
         "resource":{
            "id":"16161616-1616-4616-9616-161616161616",
            "resourceType":"Practitioner",
            "identifier":[
               {
                  "value":"Manning"
               }
            ],
            "name":[
               {
                  "given":[
                     "Terry"
                  ],
                  "use":"anonymous",
                  "family":"Manning"
               }
            ]
         },
         "request":{
            "url":"Practitioner/16161616-1616-4616-9616-161616161616",
            "method":"PUT"
         }
      },
      {
         "resource":{
            "id":"17171717-1717-4717-9717-171717171717",
            "resourceType":"Location"
         },
         "request":{
            "method":"PUT",
            "url":"Location/17171717-1717-4717-9717-171717171717"
         }
      },
      {
         "resource":{
            "id":"18181818-1818-4818-9818-181818181818",
            "resourceType":"EpisodeOfCare",
            "status":"finished",
            "patient":{
               "reference":"Patient/08080808-0808-4808-8808-080808080808"
            }
         },
         "request":{
            "method":"PUT",
            "url":"EpisodeOfCare/18181818-1818-4818-9818-181818181818"
         }
      },
      {
         "resource":{
            "hospitalization":{
               "destination":{
                  "reference":"Location/17171717-1717-4717-9717-171717171717"
               }
            },
            "id":"19191919-1919-4919-9919-191919191919",
            "resourceType":"Encounter",
            "class":{
               "system":"http://terminology.hl7.org/CodeSystem/v3-ActCode",
               "code":"unknown",
               "version":"v1",
               "display":""
            },
            "location":[
               {
                  "location":{
                     "reference":"Location/0d0d0d0d-0d0d-4d0d-8d0d-0d0d0d0d0d0d"
                  },
                  "status":"active"
               },
               {
                  "status":"active",
                  "location":{
                     "reference":"Location/0e0e0e0e-0e0e-4e0e-8e0e-0e0e0e0e0e0e"
                  }
               },
               {
                  "status":"active",
                  "location":{
                     "reference":"Location/0f0f0f0f-0f0f-4f0f-8f0f-0f0f0f0f0f0f"
                  }
               },
               {
                  "status":"active",
                  "location":{
                     "reference":"Location/0a0a0a0a-0a0a-4a0a-8a0a-0a0a0a0a0a0a"
                  }
               },
               {
                  "status":"active",
                  "location":{
                     "reference":"Location/0b0b0b0b-0b0b-4b0b-8b0b-0b0b0b0b0b0b"
                  }
               },
               {
                  "status":"active",
                  "location":{
                     "reference":"Location/0c0c0c0c-0c0c-4c0c-8c0c-0c0c0c0c0c0c"
                  }
               },
               {
                  "status":"completed",
                  "location":{
                     "reference":"Location/13131313-1313-4313-9313-131313131313"
                  }
               },
               {
                  "location":{
                     "reference":"Location/14141414-1414-4414-9414-141414141414"
                  },
                  "status":"completed"
               },
               {
                  "location":{
                     "reference":"Location/15151515-1515-4515-9515-151515151515"
                  },
                  "status":"completed"
               },
               {
                  "location":{
                     "reference":"Location/10101010-1010-4010-9010-101010101010"
                  },
                  "status":"completed"
               },
               {
                  "status":"completed",
                  "location":{
                     "reference":"Location/11111111-1111-4111-9111-111111111111"
                  }
               },
               {
                  "location":{
                     "reference":"Location/12121212-1212-4212-9212-121212121212"
                  },
                  "status":"completed"
               }
            ],
            "identifier":[
               {
                  "type":{
                     "coding":[
                        {
                           "system":"http://terminology.hl7.org/CodeSystem/v2-0203",
                           "code":"VN"
                        }
                     ],
                     "text":"visit number"
                  }
               }
            ],
            "episodeOfCare":[
               {
                  "reference":"EpisodeOfCare/18181818-1818-4818-9818-181818181818"
               }
            ],
            "status":"in-progress",
            "participant":[
               {
                  "individual":{
                     "reference":"Practitioner/16161616-1616-4616-9616-161616161616"
                  },
                  "type":[
                     {
                        "coding":[
                           {
                              "code":"ATND",
                              "system":"http://terminology.hl7.org/CodeSystem/v3-ParticipationType",
                              "display":"attender"
                           }
                        ]
                     }
                  ]
               }
            ],
            "subject":{
               "reference":"Patient/08080808-0808-4808-8808-080808080808"
            }
         },
         "request":{
            "method":"PUT",
            "url":"Encounter/19191919-1919-4919-9919-191919191919"
         }
      }
   ]
}
