{
   "resourceType":"Bundle",
   "type":"transaction",
   "entry":[
      {
         "resource":{
            "resourceType":"Organization",
            "address":[
               {
                  "country":"44"
               }
            ],
            "identifier":[
               {
                  "value":"RAL",
                  "type":{
                     "coding":[
                        {
                           "system":"http://terminology.hl7.org/CodeSystem/v2-0301"
                        }
                     ]
                  }
               },
               {
                  "type":{
                     "coding":[
                        {
                           "system":"http://terminology.hl7.org/CodeSystem/v2-0301"
                        }
                     ]
                  }
               }
            ],
            "id":"01010101-0101-4101-8101-010101010101"
         },
         "request":{
            "method":"PUT",
            "url":"Organization/01010101-0101-4101-8101-010101010101"
         }
      },
      {
         "resource":{
            "resourceType":"Organization",
            "identifier":[
               {
                  "type":{
                     "coding":[
                        {
                           "system":"http://terminology.hl7.org/CodeSystem/v2-0301"
                        }
                     ]
                  },
                  "value":"RAL"
               },
               {
                  "type":{
                     "coding":[
                        {
                           "system":"http://terminology.hl7.org/CodeSystem/v2-0301"
                        }
                     ]
                  }
               }
            ],
            "id":"02020202-0202-4202-8202-020202020202"
         },
         "request":{
            "method":"PUT",
            "url":"Organization/02020202-0202-4202-8202-020202020202"
         }
      },
      {
         "resource":{
            "id":"03030303-0303-4303-8303-030303030303",
            "resourceType":"Organization",
            "identifier":[
               {
                  "type":{
                     "coding":[
                        {
                           "system":"http://terminology.hl7.org/CodeSystem/v2-0203"
                        }
                     ]
                  }
               }
            ]
         },
         "request":{
            "method":"PUT",
            "url":"Organization/03030303-0303-4303-8303-030303030303"
         }
      },
      {
         "resource":{
            "event":{
               "code":"R01",
               "system":"http://terminology.hl7.org/CodeSystem/v2-0003"
            },
            "resourceType":"MessageHeader",
            "receiver":{
               "reference":"Organization/02020202-0202-4202-8202-020202020202"
            },
            "timestamp":"2014-08-11T19:38:05.118811Z",
            "destination":[
               {
                  "endpoint":"RAL",
                  "name":"STREAMS"
               }
            ],
            "meta":{
               "tag":[
                  {
                     "system":"http://terminology.hl7.org/CodeSystem/v2-0103",
                     "code":"T"
                  },
                  {
                     "system":"http://terminology.hl7.org/CodeSystem/v2-0207"
                  }
               ]
            },
            "source":{
               "name":"CERNER",
               "endpoint":"unknown"
            },
            "responsible":{
               "reference":"Organization/03030303-0303-4303-8303-030303030303"
            },
            "sender":{
               "reference":"Organization/01010101-0101-4101-8101-010101010101"
            },
            "id":"04040404-0404-4404-8404-040404040404"
         },
         "request":{
            "method":"PUT",
            "url":"MessageHeader/04040404-0404-4404-8404-040404040404"
         }
      },
      {
         "resource":{
            "resourceType":"Device",
            "identifier":[
               {
                  "type":{
                     "coding":[
                        {
                           "system":"http://terminology.hl7.org/CodeSystem/v2-0301"
                        }
                     ]
                  },
                  "value":"CERNER"
               }
            ],
            "id":"05050505-0505-4505-8505-050505050505"
         },
         "request":{
            "method":"PUT",
            "url":"Device/05050505-0505-4505-8505-050505050505"
         }
      },
      {
         "resource":{
            "resourceType":"Provenance",
            "agent":[
               {
                  "whoReference":{
                     "reference":"Device/05050505-0505-4505-8505-050505050505"
                  }
               }
            ],
            "recorded":"2014-08-11T19:38:05.118811Z",
            "target":[
               {
                  "reference":"MessageHeader/04040404-0404-4404-8404-040404040404"
               }
            ],
            "id":"06060606-0606-4606-8606-060606060606"
         },
         "request":{
            "method":"PUT",
            "url":"Provenance/06060606-0606-4606-8606-060606060606"
         }
      },
      {
         "resource":{
            "resourceType":"Account",
            "subject":{
               "reference":"Patient/08080808-0808-4808-8808-080808080808"
            },
            "id":"09090909-0909-4909-8909-090909090909"
         },
         "request":{
            "url":"Account/09090909-0909-4909-8909-090909090909",
            "method":"PUT"
         }
      },
      {
         "resource":{
            "identifier":[
               {
                  "value":"1325463202",
                  "type":{
                     "coding":[
                        {
                           "code":"MRN"
                        }
                     ]
                  }
               },
               {
                  "value":"1325463202",
                  "type":{
                     "coding":[
                        {
                           "code":"MRN"
                        }
                     ]
                  }
               },
               {
                  "type":{
                     "coding":[
                        {
                           "code":"NHSNMBR"
                        }
                     ]
                  },
                  "value":"3789692603"
               },
               {
                  "type":{
                     "coding":[
                        {
                           "code":"SB"
                        }
                     ]
                  }
               },
               {
                  "type":{
                     "coding":[
                        {
                           "code":"DL"
                        }
                     ]
                  }
               }
            ],
            "address":[
               {
                  "line":[
                     "140 Heater Lane"
                  ],
                  "city":"Ilford",
                  "postalCode":"JN83 4OE",
                  "country":"GBR"
               }
            ],
            "gender":"female",
            "telecom":[
               {
                  "use":"home",
                  "value":"020 2295 8931"
               }
            ],
            "name":[
               {
                  "prefix":[
                     "Mrs"
                  ],
                  "use":"official",
                  "family":"Bradley",
                  "given":[
                     "Angela",
                     "Bridget"
                  ]
               }
            ],
            "birthDate":"1977-04-20",
            "active":true,
            "resourceType":"Patient",
            "id":"08080808-0808-4808-8808-080808080808"
         },
         "request":{
            "method":"PUT",
            "url":"Patient/08080808-0808-4808-8808-080808080808"
         }
      },
      {
         "resource":{
            "partOf":{
               "reference":"Location/0b0b0b0b-0b0b-4b0b-8b0b-0b0b0b0b0b0b"
            },
            "physicalType":{
               "coding":[
                  {
                     "system":"http://terminology.hl7.org/CodeSystem/location-physical-type",
                     "code":"si"
                  }
               ]
            },
            "id":"0d0d0d0d-0d0d-4d0d-8d0d-0d0d0d0d0d0d",
            "resourceType":"Location",
            "mode":"instance"
         },
         "request":{
            "url":"Location/0d0d0d0d-0d0d-4d0d-8d0d-0d0d0d0d0d0d",
            "method":"PUT"
         }
      },
      {
         "resource":{
            "mode":"instance",
            "physicalType":{
               "coding":[
                  {
                     "code":"ro",
                     "system":"http://terminology.hl7.org/CodeSystem/location-physical-type"
                  }
               ]
            },
            "partOf":{
               "reference":"Location/0d0d0d0d-0d0d-4d0d-8d0d-0d0d0d0d0d0d"
            },
            "id":"0e0e0e0e-0e0e-4e0e-8e0e-0e0e0e0e0e0e",
            "resourceType":"Location"
         },
         "request":{
            "method":"PUT",
            "url":"Location/0e0e0e0e-0e0e-4e0e-8e0e-0e0e0e0e0e0e"
         }
      },
      {
         "resource":{
            "mode":"instance",
            "physicalType":{
               "coding":[
                  {
                     "code":"bd",
                     "system":"http://terminology.hl7.org/CodeSystem/location-physical-type"
                  }
               ]
            },
            "partOf":{
               "reference":"Location/0e0e0e0e-0e0e-4e0e-8e0e-0e0e0e0e0e0e"
            },
            "id":"0f0f0f0f-0f0f-4f0f-8f0f-0f0f0f0f0f0f",
            "resourceType":"Location"
         },
         "request":{
            "method":"PUT",
            "url":"Location/0f0f0f0f-0f0f-4f0f-8f0f-0f0f0f0f0f0f"
         }
      },
      {
         "resource":{
            "physicalType":{
               "coding":[
                  {
                     "system":"http://terminology.hl7.org/CodeSystem/location-physical-type",
                     "code":"si"
                  }
               ]
            },
            "id":"0a0a0a0a-0a0a-4a0a-8a0a-0a0a0a0a0a0a",
            "resourceType":"Location",
            "mode":"instance"
         },
         "request":{
            "method":"PUT",
            "url":"Location/0a0a0a0a-0a0a-4a0a-8a0a-0a0a0a0a0a0a"
         }
      },
      {
         "request":{
            "method":"PUT",
            "url":"Location/0b0b0b0b-0b0b-4b0b-8b0b-0b0b0b0b0b0b"
         },
         "resource":{
            "physicalType":{
               "coding":[
                  {
                     "code":"bu",
                     "system":"http://terminology.hl7.org/CodeSystem/location-physical-type"
                  }
               ]
            },
            "partOf":{
               "reference":"Location/0a0a0a0a-0a0a-4a0a-8a0a-0a0a0a0a0a0a"
            },
            "id":"0b0b0b0b-0b0b-4b0b-8b0b-0b0b0b0b0b0b",
            "resourceType":"Location",
            "mode":"instance"
         }
      },
      {
         "resource":{
            "physicalType":{
               "coding":[
                  {
                     "system":"http://terminology.hl7.org/CodeSystem/location-physical-type",
                     "code":"lvl"
                  }
               ]
            },
            "id":"0c0c0c0c-0c0c-4c0c-8c0c-0c0c0c0c0c0c",
            "resourceType":"Location",
            "partOf":{
               "reference":"Location/0b0b0b0b-0b0b-4b0b-8b0b-0b0b0b0b0b0b"
            },
            "mode":"instance"
         },
         "request":{
            "method":"PUT",
            "url":"Location/0c0c0c0c-0c0c-4c0c-8c0c-0c0c0c0c0c0c"
         }
      },
      {
         "resource":{
            "physicalType":{
               "coding":[
                  {
                     "system":"http://terminology.hl7.org/CodeSystem/location-physical-type",
                     "code":"si"
                  }
               ]
            },
            "partOf":{
               "reference":"Location/11111111-1111-4111-9111-111111111111"
            },
            "id":"13131313-1313-4313-9313-131313131313",
            "resourceType":"Location",
            "mode":"instance"
         },
         "request":{
            "method":"PUT",
            "url":"Location/13131313-1313-4313-9313-131313131313"
         }
      },
      {
         "resource":{
            "partOf":{
               "reference":"Location/13131313-1313-4313-9313-131313131313"
            },
            "physicalType":{
               "coding":[
                  {
                     "system":"http://terminology.hl7.org/CodeSystem/location-physical-type",
                     "code":"ro"
                  }
               ]
            },
            "id":"14141414-1414-4414-9414-141414141414",
            "resourceType":"Location",
            "mode":"instance"
         },
         "request":{
            "method":"PUT",
            "url":"Location/14141414-1414-4414-9414-141414141414"
         }
      },
      {
         "resource":{
            "physicalType":{
               "coding":[
                  {
                     "code":"bd",
                     "system":"http://terminology.hl7.org/CodeSystem/location-physical-type"
                  }
               ]
            },
            "partOf":{
               "reference":"Location/14141414-1414-4414-9414-141414141414"
            },
            "id":"15151515-1515-4515-9515-151515151515",
            "resourceType":"Location",
            "mode":"instance"
         },
         "request":{
            "method":"PUT",
            "url":"Location/15151515-1515-4515-9515-151515151515"
         }
      },
      {
         "resource":{
            "mode":"instance",
            "physicalType":{
               "coding":[
                  {
                     "system":"http://terminology.hl7.org/CodeSystem/location-physical-type",
                     "code":"si"
                  }
               ]
            },
            "id":"10101010-1010-4010-9010-101010101010",
            "resourceType":"Location"
         },
         "request":{
            "method":"PUT",
            "url":"Location/10101010-1010-4010-9010-101010101010"
         }
      },
      {
         "resource":{
            "physicalType":{
               "coding":[
                  {
                     "system":"http://terminology.hl7.org/CodeSystem/location-physical-type",
                     "code":"bu"
                  }
               ]
            },
            "id":"11111111-1111-4111-9111-111111111111",
            "resourceType":"Location",
            "partOf":{
               "reference":"Location/10101010-1010-4010-9010-101010101010"
            },
            "mode":"instance"
         },
         "request":{
            "method":"PUT",
            "url":"Location/11111111-1111-4111-9111-111111111111"
         }
      },
      {
         "resource":{
            "physicalType":{
               "coding":[
                  {
                     "code":"lvl",
                     "system":"http://terminology.hl7.org/CodeSystem/location-physical-type"
                  }
               ]
            },
            "partOf":{
               "reference":"Location/11111111-1111-4111-9111-111111111111"
            },
            "id":"12121212-1212-4212-9212-121212121212",
            "resourceType":"Location",
            "mode":"instance"
         },
         "request":{
            "url":"Location/12121212-1212-4212-9212-121212121212",
            "method":"PUT"
         }
      },
      {
         "resource":{
            "id":"16161616-1616-4616-9616-161616161616",
            "resourceType":"Location"
         },
         "request":{
            "method":"PUT",
            "url":"Location/16161616-1616-4616-9616-161616161616"
         }
      },
      {
         "resource":{
            "location":[
               {
                  "location":{
                     "reference":"Location/0d0d0d0d-0d0d-4d0d-8d0d-0d0d0d0d0d0d"
                  },
                  "status":"active"
               },
               {
                  "status":"active",
                  "location":{
                     "reference":"Location/0e0e0e0e-0e0e-4e0e-8e0e-0e0e0e0e0e0e"
                  }
               },
               {
                  "status":"active",
                  "location":{
                     "reference":"Location/0f0f0f0f-0f0f-4f0f-8f0f-0f0f0f0f0f0f"
                  }
               },
               {
                  "status":"active",
                  "location":{
                     "reference":"Location/0a0a0a0a-0a0a-4a0a-8a0a-0a0a0a0a0a0a"
                  }
               },
               {
                  "location":{
                     "reference":"Location/0b0b0b0b-0b0b-4b0b-8b0b-0b0b0b0b0b0b"
                  },
                  "status":"active"
               },
               {
                  "location":{
                     "reference":"Location/0c0c0c0c-0c0c-4c0c-8c0c-0c0c0c0c0c0c"
                  },
                  "status":"active"
               },
               {
                  "status":"completed",
                  "location":{
                     "reference":"Location/13131313-1313-4313-9313-131313131313"
                  }
               },
               {
                  "status":"completed",
                  "location":{
                     "reference":"Location/14141414-1414-4414-9414-141414141414"
                  }
               },
               {
                  "location":{
                     "reference":"Location/15151515-1515-4515-9515-151515151515"
                  },
                  "status":"completed"
               },
               {
                  "status":"completed",
                  "location":{
                     "reference":"Location/10101010-1010-4010-9010-101010101010"
                  }
               },
               {
                  "location":{
                     "reference":"Location/11111111-1111-4111-9111-111111111111"
                  },
                  "status":"completed"
               },
               {
                  "status":"completed",
                  "location":{
                     "reference":"Location/12121212-1212-4212-9212-121212121212"
                  }
               }
            ],
            "identifier":[
               {
                  "type":{
                     "text":"visit number",
                     "coding":[
                        {
                           "system":"http://terminology.hl7.org/CodeSystem/v2-0203",
                           "code":"VN"
                        }
                     ]
                  }
               }
            ],
            "hospitalization":{
               "destination":{
                  "reference":"Location/16161616-1616-4616-9616-161616161616"
               }
            },
            "status":"unknown",
            "subject":{
               "reference":"Patient/08080808-0808-4808-8808-080808080808"
            },
            "id":"17171717-1717-4717-9717-171717171717",
            "resourceType":"Encounter",
            "class":{
               "code":"AMB"
            }
         },
         "request":{
            "method":"PUT",
            "url":"Encounter/17171717-1717-4717-9717-171717171717"
         }
      },
      {
         "resource":{
            "id":"18181818-1818-4818-9818-181818181818",
            "resourceType":"Organization",
            "identifier":[
               {
                  "type":{
                     "coding":[
                        {
                           "system":"http://terminology.hl7.org/CodeSystem/v2-0203"
                        }
                     ]
                  }
               }
            ]
         },
         "request":{
            "url":"Organization/18181818-1818-4818-9818-181818181818",
            "method":"PUT"
         }
      },
      {
         "request":{
            "method":"PUT",
            "url":"Practitioner/19191919-1919-4919-9919-191919191919"
         },
         "resource":{
            "resourceType":"Practitioner",
            "name":[
               {
                  "use":"anonymous"
               }
            ],
            "id":"19191919-1919-4919-9919-191919191919"
         }
      },
      {
         "resource":{
            "valueString":"No fracture or dislocation is present. The joint spaces are normal.  Soft tissue is normal.",
            "identifier":[
               {
                  "type":{
                     "coding":[
                        {
                           "code":"FILL"
                        }
                     ]
                  }
               }
            ],
            "resourceType":"Observation",
            "subject":{
               "reference":"Patient/08080808-0808-4808-8808-080808080808"
            },
            "id":"1a1a1a1a-1a1a-4a1a-9a1a-1a1a1a1a1a1a",
            "performer":[
               {
                  "reference":"Organization/18181818-1818-4818-9818-181818181818"
               },
               {
                  "reference":"Practitioner/19191919-1919-4919-9919-191919191919"
               }
            ],
            "effectiveDateTime":"2014-08-11T19:38:05+08:00",
            "code":{
               "coding":[
                  {
                     "display":"APELV",
                     "code":"APELV"
                  }
               ]
            },
            "status":"final"
         },
         "request":{
            "method":"PUT",
            "url":"Observation/1a1a1a1a-1a1a-4a1a-9a1a-1a1a1a1a1a1a"
         }
      },
      {
         "resource":{
            "id":"1b1b1b1b-1b1b-4b1b-9b1b-1b1b1b1b1b1b",
            "resourceType":"Practitioner"
         },
         "request":{
            "method":"PUT",
            "url":"Practitioner/1b1b1b1b-1b1b-4b1b-9b1b-1b1b1b1b1b1b"
         }
      },
      {
         "resource":{
            "id":"1c1c1c1c-1c1c-4c1c-9c1c-1c1c1c1c1c1c",
            "resourceType":"Practitioner"
         },
         "request":{
            "method":"PUT",
            "url":"Practitioner/1c1c1c1c-1c1c-4c1c-9c1c-1c1c1c1c1c1c"
         }
      },
      {
         "resource":{
            "name":[
               {
                  "use":"anonymous"
               }
            ],
            "id":"1d1d1d1d-1d1d-4d1d-9d1d-1d1d1d1d1d1d",
            "resourceType":"Practitioner"
         },
         "request":{
            "method":"PUT",
            "url":"Practitioner/1d1d1d1d-1d1d-4d1d-9d1d-1d1d1d1d1d1d"
         }
      },
      {
         "resource":{
            "receivedTime":"2014-08-11T19:38:05+08:00",
            "subject":{
               "reference":"Patient/08080808-0808-4808-8808-080808080808"
            },
            "id":"1e1e1e1e-1e1e-4e1e-9e1e-1e1e1e1e1e1e",
            "resourceType":"Specimen",
            "collection":{
               "collector":{
                  "reference":"Practitioner/1d1d1d1d-1d1d-4d1d-9d1d-1d1d1d1d1d1d"
               }
            }
         },
         "request":{
            "method":"PUT",
            "url":"Specimen/1e1e1e1e-1e1e-4e1e-9e1e-1e1e1e1e1e1e"
         }
      },
      {
         "resource":{
            "effectiveDateTime":"2014-08-11T19:38:05+08:00",
            "identifier":[
               {
                  "value":"1909829541",
                  "type":{
                     "coding":[
                        {
                           "code":"PLAC",
                           "system":"http://terminology.hl7.org/CodeSystem/v2-0203"
                        }
                     ]
                  }
               },
               {
                  "value":"3496264291",
                  "type":{
                     "coding":[
                        {
                           "system":"http://terminology.hl7.org/CodeSystem/v2-0203",
                           "code":"FILL"
                        }
                     ]
                  }
               },
               {
                  "type":{
                     "coding":[
                        {
                           "code":"PLAC",
                           "system":"http://terminology.hl7.org/CodeSystem/v2-0203"
                        }
                     ]
                  },
                  "value":"1909829541"
               },
               {
                  "value":"3496264291",
                  "type":{
                     "coding":[
                        {
                           "system":"http://terminology.hl7.org/CodeSystem/v2-0203",
                           "code":"FILL"
                        }
                     ]
                  }
               }
            ],
            "status":"final",
            "performer":[
               {
                  "actor":{
                     "reference":"Practitioner/1b1b1b1b-1b1b-4b1b-9b1b-1b1b1b1b1b1b"
                  }
               },
               {
                  "actor":{
                     "reference":"Practitioner/1c1c1c1c-1c1c-4c1c-9c1c-1c1c1c1c1c1c"
                  }
               }
            ],
            "code":{
               "coding":[
                  {
                     "code":"AP Pelvis",
                     "display":"AP Pelvis"
                  }
               ]
            },
            "subject":{
               "reference":"Patient/08080808-0808-4808-8808-080808080808"
            },
            "issued":"2014-08-11T19:38:05.118811Z",
            "specimen":[
               {
                  "reference":"Specimen/1e1e1e1e-1e1e-4e1e-9e1e-1e1e1e1e1e1e"
               }
            ],
            "id":"1f1f1f1f-1f1f-4f1f-9f1f-1f1f1f1f1f1f",
            "context":{
               "reference":"Encounter/17171717-1717-4717-9717-171717171717"
            },
            "resourceType":"DiagnosticReport"
         },
         "request":{
            "method":"PUT",
            "url":"DiagnosticReport/1f1f1f1f-1f1f-4f1f-9f1f-1f1f1f1f1f1f"
         }
      }
   ],
   "identifier":{
      "value":"8971"
   }
}
