{
   "identifier":{
      "value":"8971"
   },
   "resourceType":"Bundle",
   "type":"transaction",
   "entry":[
      {
         "request":{
            "method":"PUT",
            "url":"Organization/01010101-0101-4101-8101-010101010101"
         },
         "resource":{
            "address":[
               {
                  "country":"44"
               }
            ],
            "identifier":[
               {
                  "value":"RAL"
               }
            ],
            "id":"01010101-0101-4101-8101-010101010101",
            "resourceType":"Organization"
         }
      },
      {
         "resource":{
            "resourceType":"Organization",
            "identifier":[
               {
                  "value":"RAL"
               }
            ],
            "id":"02020202-0202-4202-8202-020202020202"
         },
         "request":{
            "method":"PUT",
            "url":"Organization/02020202-0202-4202-8202-020202020202"
         }
      },
      {
         "request":{
            "url":"MessageHeader/03030303-0303-4303-8303-030303030303",
            "method":"PUT"
         },
         "resource":{
            "timestamp":"2014-08-11T19:38:05.118811Z",
            "destination":[
               {
                  "endpoint":"RAL",
                  "name":"STREAMS"
               }
            ],
            "event":{
               "code":"R01",
               "system":"http://terminology.hl7.org/CodeSystem/v2-0003"
            },
            "source":{
               "name":"CERNER",
               "endpoint":"unknown"
            },
            "resourceType":"MessageHeader",
            "sender":{
               "reference":"Organization/01010101-0101-4101-8101-010101010101"
            },
            "meta":{
               "tag":[
                  {
                     "code":"T",
                     "system":"http://terminology.hl7.org/CodeSystem/v2-0103"
                  },
                  {
                     "system":"http://terminology.hl7.org/CodeSystem/v2-0207"
                  }
               ]
            },
            "receiver":{
               "reference":"Organization/02020202-0202-4202-8202-020202020202"
            },
            "id":"03030303-0303-4303-8303-030303030303"
         }
      },
      {
         "resource":{
            "resourceType":"Device",
            "identifier":[
               {
                  "value":"CERNER"
               }
            ],
            "id":"04040404-0404-4404-8404-040404040404"
         },
         "request":{
            "url":"Device/04040404-0404-4404-8404-040404040404",
            "method":"PUT"
         }
      },
      {
         "resource":{
            "id":"05050505-0505-4505-8505-050505050505",
            "resourceType":"Provenance",
            "agent":[
               {
                  "whoReference":{
                     "reference":"Device/04040404-0404-4404-8404-040404040404"
                  }
               }
            ],
            "recorded":"2014-08-11T19:38:05.118811Z",
            "target":[
               {
                  "reference":"MessageHeader/03030303-0303-4303-8303-030303030303"
               }
            ]
         },
         "request":{
            "url":"Provenance/05050505-0505-4505-8505-050505050505",
            "method":"PUT"
         }
      },
      {
         "resource":{
            "birthDate":"1977-04-20",
            "identifier":[
               {
                  "value":"1325463202",
                  "type":{
                     "coding":[
                        {
                           "code":"MRN"
                        }
                     ]
                  }
               },
               {
                  "type":{
                     "coding":[
                        {
                           "code":"MRN"
                        }
                     ]
                  },
                  "value":"1325463202"
               },
               {
                  "type":{
                     "coding":[
                        {
                           "code":"NHSNMBR"
                        }
                     ]
                  },
                  "value":"3789692603"
               },
               {
                  "type":{
                     "coding":[
                        {
                           "code":"SB"
                        }
                     ]
                  }
               },
               {
                  "type":{
                     "coding":[
                        {
                           "code":"DL"
                        }
                     ]
                  }
               }
            ],
            "name":[
               {
                  "given":[
                     "Angela",
                     "Bridget"
                  ],
                  "prefix":[
                     "Mrs"
                  ],
                  "use":"official",
                  "family":"Bradley"
               }
            ],
            "telecom":[
               {
                  "value":"020 2295 8931",
                  "use":"home"
               }
            ],
            "id":"07070707-0707-4707-8707-070707070707",
            "active":true,
            "gender":"female",
            "address":[
               {
                  "line":[
                     "140 Heater Lane"
                  ],
                  "city":"Ilford",
                  "postalCode":"JN83 4OE",
                  "country":"GBR"
               }
            ],
            "resourceType":"Patient"
         },
         "request":{
            "method":"PUT",
            "url":"Patient/07070707-0707-4707-8707-070707070707"
         }
      },
      {
         "resource":{
            "status":"final",
            "effectiveDateTime":"2014-08-11T19:38:05+08:00",
            "identifier":[
               {
                  "type":{
                     "coding":[
                        {
                           "code":"FILL"
                        }
                     ]
                  }
               }
            ],
            "subject":{
               "reference":"Patient/07070707-0707-4707-8707-070707070707"
            },
            "id":"08080808-0808-4808-8808-080808080808",
            "resourceType":"Observation",
            "code":{
               "coding":[
                  {
                     "display":"APELV",
                     "code":"APELV"
                  }
               ]
            },
            "valueString":"No fracture or dislocation is present. The joint spaces are normal.  Soft tissue is normal."
         },
         "request":{
            "url":"Observation/08080808-0808-4808-8808-080808080808",
            "method":"PUT"
         }
      },
      {
         "request":{
            "method":"PUT",
            "url":"Specimen/09090909-0909-4909-8909-090909090909"
         },
         "resource":{
            "resourceType":"Specimen",
            "receivedTime":"2014-08-11T19:38:05+08:00",
            "subject":{
               "reference":"Patient/07070707-0707-4707-8707-070707070707"
            },
            "id":"09090909-0909-4909-8909-090909090909"
         }
      },
      {
         "resource":{
            "id":"0a0a0a0a-0a0a-4a0a-8a0a-0a0a0a0a0a0a",
            "effectiveDateTime":"2014-08-11T19:38:05+08:00",
            "specimen":[
               {
                  "reference":"Specimen/09090909-0909-4909-8909-090909090909"
               }
            ],
            "code":{
               "coding":[
                  {
                     "code":"AP Pelvis",
                     "display":"AP Pelvis"
                  }
               ]
            },
            "resourceType":"DiagnosticReport",
            "issued":"2014-08-11T19:38:05.118811Z",
            "identifier":[
               {
                  "value":"1909829541",
                  "type":{
                     "coding":[
                        {
                           "system":"http://terminology.hl7.org/CodeSystem/v2-0203",
                           "code":"PLAC"
                        }
                     ]
                  }
               },
               {
                  "type":{
                     "coding":[
                        {
                           "system":"http://terminology.hl7.org/CodeSystem/v2-0203",
                           "code":"FILL"
                        }
                     ]
                  },
                  "value":"3496264291"
               },
               {
                  "value":"1909829541",
                  "type":{
                     "coding":[
                        {
                           "system":"http://terminology.hl7.org/CodeSystem/v2-0203",
                           "code":"PLAC"
                        }
                     ]
                  }
               },
               {
                  "type":{
                     "coding":[
                        {
                           "code":"FILL",
                           "system":"http://terminology.hl7.org/CodeSystem/v2-0203"
                        }
                     ]
                  },
                  "value":"3496264291"
               }
            ],
            "status":"final",
            "subject":{
               "reference":"Patient/07070707-0707-4707-8707-070707070707"
            }
         },
         "request":{
            "url":"DiagnosticReport/0a0a0a0a-0a0a-4a0a-8a0a-0a0a0a0a0a0a",
            "method":"PUT"
         }
      }
   ]
}
