{
   "type":"transaction",
   "entry":[
      {
         "resource":{
            "resourceType":"Organization",
            "identifier":[
               {
                  "value":"SFAC"
               }
            ],
            "address":[
               {
                  "country":"44"
               }
            ],
            "id":"01010101-0101-4101-8101-010101010101"
         },
         "request":{
            "url":"Organization/01010101-0101-4101-8101-010101010101",
            "method":"PUT"
         }
      },
      {
         "resource":{
            "identifier":[
               {
                  "value":"RFAC"
               }
            ],
            "id":"02020202-0202-4202-8202-020202020202",
            "resourceType":"Organization"
         },
         "request":{
            "method":"PUT",
            "url":"Organization/02020202-0202-4202-8202-020202020202"
         }
      },
      {
         "resource":{
            "source":{
               "name":"SIMHOSP",
               "endpoint":"unknown"
            },
            "sender":{
               "reference":"Organization/01010101-0101-4101-8101-010101010101"
            },
            "destination":[
               {
                  "receiver":{
                     "reference":"Organization/02020202-0202-4202-8202-020202020202"
                  },
                  "name":"RAPP",
                  "endpoint":"unknown"
               }
            ],
            "eventCoding":{
               "code":"A03",
               "display":"ADT^A03^",
               "system":"http://terminology.hl7.org/CodeSystem/v2-0003"
            },
            "meta":{
               "tag":[
                  {
                     "system":"http://terminology.hl7.org/CodeSystem/v2-0103",
                     "code":"T"
                  },
                  {
                     "system":"http://terminology.hl7.org/CodeSystem/v2-0207"
                  }
               ]
            },
            "id":"03030303-0303-4303-8303-030303030303",
            "resourceType":"MessageHeader"
         },
         "request":{
            "method":"PUT",
            "url":"MessageHeader/03030303-0303-4303-8303-030303030303"
         }
      },
      {
         "resource":{
            "identifier":[
               {
                  "value":"SIMHOSP"
               }
            ],
            "id":"04040404-0404-4404-8404-040404040404",
            "resourceType":"Device"
         },
         "request":{
            "method":"PUT",
            "url":"Device/04040404-0404-4404-8404-040404040404"
         }
      },
      {
         "resource":{
            "recorded":"2020-05-26T16:59:17.265526Z",
            "target":[
               {
                  "reference":"MessageHeader/03030303-0303-4303-8303-030303030303"
               }
            ],
            "id":"05050505-0505-4505-8505-050505050505",
            "resourceType":"Provenance",
            "agent":[
               {
                  "who":{
                     "reference":"Device/04040404-0404-4404-8404-040404040404"
                  }
               }
            ]
         },
         "request":{
            "url":"Provenance/05050505-0505-4505-8505-050505050505",
            "method":"PUT"
         }
      },
      {
         "resource":{
            "identifier":[
               {
                  "type":{
                     "coding":[
                        {
                           "system":"http://terminology.hl7.org/CodeSystem/v2-0203"
                        }
                     ]
                  },
                  "value":"12345"
               }
            ],
            "id":"06060606-0606-4606-8606-060606060606",
            "resourceType":"Organization",
            "name":"FAMILY PRACTICE"
         },
         "request":{
            "url":"Organization/06060606-0606-4606-8606-060606060606",
            "method":"PUT"
         }
      },
      {
         "resource":{
            "resourceType":"Patient",
            "gender":"male",
            "name":[
               {
                  "use":"anonymous",
                  "family":"Parthasarathy",
                  "given":[
                     "AKI Scenario 12"
                  ],
                  "prefix":[
                     "Mr"
                  ]
               }
            ],
            "active":true,
            "identifier":[
               {
                  "type":{
                     "coding":[
                        {
                           "code":"MRN"
                        }
                     ]
                  },
                  "value":"1162015789"
               },
               {
                  "type":{
                     "coding":[
                        {
                           "code":"MRN"
                        }
                     ]
                  },
                  "value":"1162015789"
               },
               {
                  "value":"2172427195",
                  "type":{
                     "coding":[
                        {
                           "code":"NHSNMBR"
                        }
                     ]
                  }
               },
               {
                  "system":"http://hl7.org/fhir/sid/us-ssn",
                  "type":{
                     "coding":[
                        {
                           "system":"http://terminology.hl7.org/CodeSystem/v2-0203",
                           "code":"SB"
                        }
                     ]
                  }
               },
               {
                  "type":{
                     "coding":[
                        {
                           "system":"http://terminology.hl7.org/CodeSystem/v2-0203",
                           "code":"DL"
                        }
                     ]
                  }
               }
            ],
            "address":[
               {
                  "line":[
                     "79 Zoot-Suit Place"
                  ],
                  "city":"Croydon",
                  "postalCode":"NR52 4EF",
                  "country":"GBR"
               }
            ],
            "birthDate":"1950-11-16",
            "telecom":[
               {
                  "value":"074 5609 6867",
                  "system":"phone",
                  "use":"home"
               }
            ],
            "multipleBirthBoolean":false,
            "generalPractitioner":[
               {
                  "reference":"Organization/06060606-0606-4606-8606-060606060606"
               }
            ],
            "id":"07070707-0707-4707-8707-070707070707"
         },
         "request":{
            "method":"PUT",
            "url":"Patient/07070707-0707-4707-8707-070707070707"
         }
      },
      {
         "resource":{
            "name":"RenalWard",
            "mode":"instance",
            "physicalType":{
               "coding":[
                  {
                     "code":"si",
                     "system":"http://terminology.hl7.org/CodeSystem/location-physical-type"
                  }
               ]
            },
            "id":"0b0b0b0b-0b0b-4b0b-8b0b-0b0b0b0b0b0b",
            "resourceType":"Location",
            "partOf":{
               "reference":"Location/09090909-0909-4909-8909-090909090909"
            }
         },
         "request":{
            "method":"PUT",
            "url":"Location/0b0b0b0b-0b0b-4b0b-8b0b-0b0b0b0b0b0b"
         }
      },
      {
         "request":{
            "method":"PUT",
            "url":"Location/0c0c0c0c-0c0c-4c0c-8c0c-0c0c0c0c0c0c"
         },
         "resource":{
            "name":"MainRoom",
            "mode":"instance",
            "physicalType":{
               "coding":[
                  {
                     "code":"ro",
                     "system":"http://terminology.hl7.org/CodeSystem/location-physical-type"
                  }
               ]
            },
            "id":"0c0c0c0c-0c0c-4c0c-8c0c-0c0c0c0c0c0c",
            "partOf":{
               "reference":"Location/0b0b0b0b-0b0b-4b0b-8b0b-0b0b0b0b0b0b"
            },
            "resourceType":"Location"
         }
      },
      {
         "resource":{
            "partOf":{
               "reference":"Location/0c0c0c0c-0c0c-4c0c-8c0c-0c0c0c0c0c0c"
            },
            "resourceType":"Location",
            "name":"Bed 6",
            "mode":"instance",
            "physicalType":{
               "coding":[
                  {
                     "code":"bd",
                     "system":"http://terminology.hl7.org/CodeSystem/location-physical-type"
                  }
               ]
            },
            "id":"0d0d0d0d-0d0d-4d0d-8d0d-0d0d0d0d0d0d"
         },
         "request":{
            "method":"PUT",
            "url":"Location/0d0d0d0d-0d0d-4d0d-8d0d-0d0d0d0d0d0d"
         }
      },
      {
         "resource":{
            "resourceType":"Location",
            "name":"Simulated Hospital",
            "mode":"instance",
            "physicalType":{
               "coding":[
                  {
                     "system":"http://terminology.hl7.org/CodeSystem/location-physical-type",
                     "code":"si"
                  }
               ]
            },
            "id":"08080808-0808-4808-8808-080808080808"
         },
         "request":{
            "method":"PUT",
            "url":"Location/08080808-0808-4808-8808-080808080808"
         }
      },
      {
         "request":{
            "url":"Location/09090909-0909-4909-8909-090909090909",
            "method":"PUT"
         },
         "resource":{
            "resourceType":"Location",
            "partOf":{
               "reference":"Location/08080808-0808-4808-8808-080808080808"
            },
            "name":"Main Building",
            "mode":"instance",
            "physicalType":{
               "coding":[
                  {
                     "code":"bu",
                     "system":"http://terminology.hl7.org/CodeSystem/location-physical-type"
                  }
               ]
            },
            "id":"09090909-0909-4909-8909-090909090909"
         }
      },
      {
         "request":{
            "method":"PUT",
            "url":"Location/0a0a0a0a-0a0a-4a0a-8a0a-0a0a0a0a0a0a"
         },
         "resource":{
            "partOf":{
               "reference":"Location/09090909-0909-4909-8909-090909090909"
            },
            "id":"0a0a0a0a-0a0a-4a0a-8a0a-0a0a0a0a0a0a",
            "resourceType":"Location",
            "name":"5",
            "mode":"instance",
            "physicalType":{
               "coding":[
                  {
                     "system":"http://terminology.hl7.org/CodeSystem/location-physical-type",
                     "code":"lvl"
                  }
               ]
            }
         }
      },
      {
         "request":{
            "url":"Practitioner/0e0e0e0e-0e0e-4e0e-8e0e-0e0e0e0e0e0e",
            "method":"PUT"
         },
         "resource":{
            "identifier":[
               {
                  "value":"C003",
                  "type":{
                     "coding":[
                        {
                           "code":"ORGDR"
                        }
                     ]
                  }
               }
            ],
            "name":[
               {
                  "given":[
                     "Kevin"
                  ],
                  "prefix":[
                     "Dr"
                  ],
                  "use":"anonymous",
                  "family":"Cuddy"
               }
            ],
            "id":"0e0e0e0e-0e0e-4e0e-8e0e-0e0e0e0e0e0e",
            "resourceType":"Practitioner"
         }
      },
      {
         "resource":{
            "resourceType":"Encounter",
            "type":[
               {
                  "coding":[
                     {
                        "code":"28b"
                     }
                  ]
               }
            ],
            "status":"finished",
            "identifier":[
               {
                  "type":{
                     "coding":[
                        {
                           "system":"http://terminology.hl7.org/CodeSystem/v2-0203",
                           "code":"visitid"
                        }
                     ],
                     "text":"visit number"
                  },
                  "value":"15125621663361907232"
               }
            ],
            "participant":[
               {
                  "type":[
                     {
                        "coding":[
                           {
                              "system":"http://terminology.hl7.org/CodeSystem/v3-ParticipationType",
                              "display":"attender",
                              "code":"ATND"
                           }
                        ]
                     }
                  ],
                  "individual":{
                     "reference":"Practitioner/0e0e0e0e-0e0e-4e0e-8e0e-0e0e0e0e0e0e"
                  }
               }
            ],
            "class":{
               "display":"inpatient encounter",
               "system":"http://terminology.hl7.org/CodeSystem/v3-ActCode",
               "code":"IMP",
               "version":"v1"
            },
            "period":{
               "start":"2020-05-26T16:01:03+05:00",
               "end":"2020-05-26T16:59:17+05:00"
            },
            "id":"0f0f0f0f-0f0f-4f0f-8f0f-0f0f0f0f0f0f",
            "subject":{
               "reference":"Patient/07070707-0707-4707-8707-070707070707"
            },
            "location":[
               {
                  "location":{
                     "reference":"Location/0b0b0b0b-0b0b-4b0b-8b0b-0b0b0b0b0b0b"
                  },
                  "status":"active"
               },
               {
                  "location":{
                     "reference":"Location/0c0c0c0c-0c0c-4c0c-8c0c-0c0c0c0c0c0c"
                  },
                  "status":"active"
               },
               {
                  "location":{
                     "reference":"Location/0d0d0d0d-0d0d-4d0d-8d0d-0d0d0d0d0d0d"
                  },
                  "status":"active"
               },
               {
                  "status":"active",
                  "location":{
                     "reference":"Location/08080808-0808-4808-8808-080808080808"
                  }
               },
               {
                  "location":{
                     "reference":"Location/09090909-0909-4909-8909-090909090909"
                  },
                  "status":"active"
               },
               {
                  "location":{
                     "reference":"Location/0a0a0a0a-0a0a-4a0a-8a0a-0a0a0a0a0a0a"
                  },
                  "status":"active"
               }
            ]
         },
         "request":{
            "url":"Encounter/0f0f0f0f-0f0f-4f0f-8f0f-0f0f0f0f0f0f",
            "method":"PUT"
         }
      },
      {
         "request":{
            "method":"PUT",
            "url":"AllergyIntolerance/10101010-1010-4010-9010-101010101010"
         },
         "resource":{
            "resourceType":"AllergyIntolerance",
            "category":[
               "food"
            ],
            "onsetDateTime":"2019-10-20T16:01:03+10:00",
            "type":"allergy",
            "clinicalStatus":{
               "coding":[
                  {
                     "system":"http://terminology.hl7.org/CodeSystem/allergyintolerance-clinical",
                     "code":"active"
                  }
               ]
            },
            "reaction":[
               {
                  "manifestation":[
                     {
                        "text":"Place Holder"
                     }
                  ],
                  "severity":"moderate"
               }
            ],
            "id":"10101010-1010-4010-9010-101010101010",
            "patient":{
               "reference":"Patient/07070707-0707-4707-8707-070707070707"
            },
            "code":{
               "coding":[
                  {
                     "code":"59037007",
                     "display":"Drug intolerance (disorder)",
                     "system":"SNM3"
                  }
               ]
            }
         }
      },
      {
         "resource":{
            "onsetDateTime":"2019-06-04T16:01:03+06:00",
            "code":{
               "coding":[
                  {
                     "system":"SNM3",
                     "code":"419199007",
                     "display":"Allergy to substance (disorder)"
                  }
               ]
            },
            "resourceType":"AllergyIntolerance",
            "type":"allergy",
            "clinicalStatus":{
               "coding":[
                  {
                     "code":"active",
                     "system":"http://terminology.hl7.org/CodeSystem/allergyintolerance-clinical"
                  }
               ]
            },
            "category":[
               "medication"
            ],
            "id":"11111111-1111-4111-9111-111111111111",
            "reaction":[
               {
                  "manifestation":[
                     {
                        "text":"Place Holder"
                     }
                  ],
                  "severity":"severe"
               }
            ],
            "patient":{
               "reference":"Patient/07070707-0707-4707-8707-070707070707"
            }
         },
         "request":{
            "url":"AllergyIntolerance/11111111-1111-4111-9111-111111111111",
            "method":"PUT"
         }
      },
      {
         "resource":{
            "category":[
               "medication"
            ],
            "onsetDateTime":"2020-05-06T16:01:03+05:00",
            "clinicalStatus":{
               "coding":[
                  {
                     "code":"active",
                     "system":"http://terminology.hl7.org/CodeSystem/allergyintolerance-clinical"
                  }
               ]
            },
            "patient":{
               "reference":"Patient/07070707-0707-4707-8707-070707070707"
            },
            "code":{
               "coding":[
                  {
                     "display":"Food intolerance (disorder)",
                     "system":"SNM3",
                     "code":"235719002"
                  }
               ]
            },
            "id":"12121212-1212-4212-9212-121212121212",
            "type":"allergy",
            "resourceType":"AllergyIntolerance",
            "reaction":[
               {
                  "manifestation":[
                     {
                        "text":"Place Holder"
                     }
                  ],
                  "severity":"severe"
               }
            ]
         },
         "request":{
            "url":"AllergyIntolerance/12121212-1212-4212-9212-121212121212",
            "method":"PUT"
         }
      }
   ],
   "timestamp":"2020-05-26T16:59:17.265526Z",
   "identifier":{
      "value":"456"
   },
   "resourceType":"Bundle"
}
