{
   "identifier":{
      "value":"7"
   },
   "resourceType":"Bundle",
   "type":"transaction",
   "entry":[
      {
         "resource":{
            "address":[
               {
                  "country":"44"
               }
            ],
            "id":"01010101-0101-4101-8101-010101010101",
            "resourceType":"Organization",
            "identifier":[
               {
                  "value":"RAL"
               },
               {
                  "system":"urn:ietf:rfc:3986",
                  "value":"4.2-two",
                  "type":{
                     "coding":[
                        {
                           "code":"UUID",
                           "system":"http://terminology.hl7.org/CodeSystem/v2-0301"
                        }
                     ]
                  }
               }
            ]
         },
         "request":{
            "method":"PUT",
            "url":"Organization/01010101-0101-4101-8101-010101010101"
         }
      },
      {
         "resource":{
            "id":"02020202-0202-4202-8202-020202020202",
            "resourceType":"Organization",
            "name":"Reciever - YIEWSLEY FAMILY PRACTICE",
            "identifier":[
               {
                  "value":"6010",
                  "type":{
                     "coding":[
                        {
                           "system":"http://terminology.hl7.org/CodeSystem/v2-0203",
                           "code":"DCode"
                        }
                     ]
                  }
               }
            ]
         },
         "request":{
            "url":"Organization/02020202-0202-4202-8202-020202020202",
            "method":"PUT"
         }
      },
      {
         "resource":{
            "id":"03030303-0303-4303-8303-030303030303",
            "resourceType":"Organization",
            "name":"Resposible - YIEWSLEY FAMILY PRACTICE",
            "identifier":[
               {
                  "value":"6010",
                  "type":{
                     "coding":[
                        {
                           "code":"RCode",
                           "system":"http://terminology.hl7.org/CodeSystem/v2-0203"
                        }
                     ]
                  }
               }
            ]
         },
         "request":{
            "method":"PUT",
            "url":"Organization/03030303-0303-4303-8303-030303030303"
         }
      },
      {
         "resource":{
            "responsible":{
               "reference":"Organization/03030303-0303-4303-8303-030303030303"
            },
            "source":{
               "endpoint":"3.2-two",
               "name":"CERNER"
            },
            "resourceType":"MessageHeader",
            "destination":[
               {
                  "name":"STREAMS",
                  "receiver":{
                     "reference":"Organization/02020202-0202-4202-8202-020202020202"
                  },
                  "endpoint":"RAL"
               }
            ],
            "meta":{
               "security":[
                  {
                     "code":"8-Security"
                  }
               ],
               "tag":[
                  {
                     "code":"T",
                     "system":"http://terminology.hl7.org/CodeSystem/v2-0103"
                  },
                  {
                     "system":"http://terminology.hl7.org/CodeSystem/v2-0207",
                     "code":"11.2-processing"
                  }
               ]
            },
            "sender":{
               "reference":"Organization/01010101-0101-4101-8101-010101010101"
            },
            "id":"04040404-0404-4404-8404-040404040404",
            "language":"ENG",
            "eventCoding":{
               "system":"http://terminology.hl7.org/CodeSystem/v2-0003",
               "code":"A01"
            }
         },
         "request":{
            "method":"PUT",
            "url":"MessageHeader/04040404-0404-4404-8404-040404040404"
         }
      },
      {
         "request":{
            "method":"PUT",
            "url":"Device/05050505-0505-4505-8505-050505050505"
         },
         "resource":{
            "resourceType":"Device",
            "identifier":[
               {
                  "value":"CERNER"
               }
            ],
            "id":"05050505-0505-4505-8505-050505050505"
         }
      },
      {
         "request":{
            "url":"Provenance/06060606-0606-4606-8606-060606060606",
            "method":"PUT"
         },
         "resource":{
            "target":[
               {
                  "reference":"MessageHeader/04040404-0404-4404-8404-040404040404"
               }
            ],
            "id":"06060606-0606-4606-8606-060606060606",
            "resourceType":"Provenance",
            "agent":[
               {
                  "who":{
                     "reference":"Device/05050505-0505-4505-8505-050505050505"
                  }
               }
            ],
            "recorded":"2019-03-09T13:01:56.9339Z"
         }
      }
   ],
   "timestamp":"2019-03-09T13:01:56.9339Z"
}
