{
   "type":"transaction",
   "entry":[
      {
         "resource":{
            "resourceType":"Organization",
            "identifier":[
               {
                  "value":"Ntierprise Clinic"
               }
            ],
            "id":"01010101-0101-4101-8101-010101010101"
         },
         "request":{
            "method":"PUT",
            "url":"Organization/01010101-0101-4101-8101-010101010101"
         }
      },
      {
         "request":{
            "method":"PUT",
            "url":"Organization/02020202-0202-4202-8202-020202020202"
         },
         "resource":{
            "id":"02020202-0202-4202-8202-020202020202",
            "resourceType":"Organization",
            "identifier":[
               {
                  "value":"Healthmatics Clinic"
               }
            ]
         }
      },
      {
         "resource":{
            "source":{
               "name":"Ntierprise",
               "endpoint":"unknown"
            },
            "sender":{
               "reference":"Organization/01010101-0101-4101-8101-010101010101"
            },
            "destination":[
               {
                  "receiver":{
                     "reference":"Organization/02020202-0202-4202-8202-020202020202"
                  },
                  "name":"Healthmatics EHR",
                  "endpoint":"unknown"
               }
            ],
            "eventCoding":{
               "system":"http://terminology.hl7.org/CodeSystem/v2-0003",
               "code":"A08",
               "display":"ADT^A08^"
            },
            "meta":{
               "tag":[
                  {
                     "system":"http://terminology.hl7.org/CodeSystem/v2-0103",
                     "code":"P"
                  },
                  {
                     "system":"http://terminology.hl7.org/CodeSystem/v2-0207"
                  }
               ]
            },
            "id":"03030303-0303-4303-8303-030303030303",
            "resourceType":"MessageHeader"
         },
         "request":{
            "method":"PUT",
            "url":"MessageHeader/03030303-0303-4303-8303-030303030303"
         }
      },
      {
         "resource":{
            "resourceType":"Device",
            "identifier":[
               {
                  "value":"Ntierprise"
               }
            ],
            "id":"04040404-0404-4404-8404-040404040404"
         },
         "request":{
            "method":"PUT",
            "url":"Device/04040404-0404-4404-8404-040404040404"
         }
      },
      {
         "resource":{
            "target":[
               {
                  "reference":"MessageHeader/03030303-0303-4303-8303-030303030303"
               }
            ],
            "id":"05050505-0505-4505-8505-050505050505",
            "resourceType":"Provenance",
            "agent":[
               {
                  "who":{
                     "reference":"Device/04040404-0404-4404-8404-040404040404"
                  }
               }
            ],
            "recorded":"2019-04-23T11:39:10.234423Z"
         },
         "request":{
            "method":"PUT",
            "url":"Provenance/05050505-0505-4505-8505-050505050505"
         }
      },
      {
         "request":{
            "url":"Patient/06060606-0606-4606-8606-060606060606",
            "method":"PUT"
         },
         "resource":{
            "contact":[
               {
                  "name":{
                     "given":[
                        "Lady",
                        "T"
                     ],
                     "family":"Bond"
                  },
                  "address":{
                     "city":"Cary",
                     "state":"NC",
                     "postalCode":"27511",
                     "line":[
                        "007 Soho Lane"
                     ]
                  },
                  "telecom":[
                     {
                        "value":"(919)007-0007",
                        "use":"home"
                     }
                  ]
               }
            ],
            "id":"06060606-0606-4606-8606-060606060606",
            "birthDate":"1999-07-23",
            "name":[
               {
                  "given":[
                     "Tiny"
                  ],
                  "family":"Bond"
               }
            ],
            "resourceType":"Patient",
            "address":[
               {
                  "city":"Raleigh",
                  "state":"NC",
                  "postalCode":"27677",
                  "line":[
                     "8388 Secret Agent Way"
                  ]
               }
            ],
            "identifier":[
               {
                  "value":"151"
               },
               {
                  "system":"http://hl7.org/fhir/sid/us-ssn",
                  "type":{
                     "coding":[
                        {
                           "code":"SB",
                           "system":"http://terminology.hl7.org/CodeSystem/v2-0203"
                        }
                     ]
                  }
               },
               {
                  "type":{
                     "coding":[
                        {
                           "code":"DL",
                           "system":"http://terminology.hl7.org/CodeSystem/v2-0203"
                        }
                     ]
                  }
               }
            ],
            "multipleBirthBoolean":false,
            "gender":"male",
            "active":true,
            "deceasedBoolean":false
         }
      },
      {
         "resource":{
            "identifier":[
               {
                  "value":"151"
               }
            ],
            "subject":[
               {
                  "reference":"Patient/06060606-0606-4606-8606-060606060606"
               }
            ],
            "status":"active",
            "id":"07070707-0707-4707-8707-070707070707",
            "resourceType":"Account"
         },
         "request":{
            "url":"Account/07070707-0707-4707-8707-070707070707",
            "method":"PUT"
         }
      },
      {
         "resource":{
            "resourceType":"RelatedPerson",
            "name":[
               {
                  "given":[
                     "Lady",
                     "T"
                  ],
                  "family":"Bond"
               }
            ],
            "relationship":[
               {
                  "coding":[
                     {
                        "code":"Spouse",
                        "version":"v1",
                        "display":"",
                        "system":"Relationship-unharmonized"
                     }
                  ]
               }
            ],
            "address":[
               {
                  "postalCode":"27511",
                  "line":[
                     "007 Soho Lane"
                  ],
                  "city":"Cary",
                  "state":"NC"
               }
            ],
            "telecom":[
               {
                  "value":"(919)007-0007",
                  "use":"home"
               }
            ],
            "identifier":[
               {
                  "type":{
                     "coding":[
                        {
                           "system":"http://terminology.hl7.org/CodeSystem/v2-0203",
                           "code":"SB"
                        }
                     ]
                  },
                  "system":"http://hl7.org/fhir/sid/us-ssn"
               }
            ],
            "patient":{
               "reference":"Patient/06060606-0606-4606-8606-060606060606"
            },
            "id":"08080808-0808-4808-8808-080808080808"
         },
         "request":{
            "method":"PUT",
            "url":"RelatedPerson/08080808-0808-4808-8808-080808080808"
         }
      },
      {
         "resource":{
            "resourceType":"Practitioner",
            "identifier":[
               {
                  "value":"Manning"
               }
            ],
            "name":[
               {
                  "given":[
                     "Terry"
                  ],
                  "family":"Manning"
               }
            ],
            "id":"09090909-0909-4909-8909-090909090909"
         },
         "request":{
            "method":"PUT",
            "url":"Practitioner/09090909-0909-4909-8909-090909090909"
         }
      },
      {
         "resource":{
            "status":"in-progress",
            "subject":{
               "reference":"Patient/06060606-0606-4606-8606-060606060606"
            },
            "id":"0a0a0a0a-0a0a-4a0a-8a0a-0a0a0a0a0a0a",
            "resourceType":"Encounter",
            "class":{
               "version":"v1",
               "display":"",
               "system":"http://terminology.hl7.org/CodeSystem/v3-ActCode",
               "code":"unknown"
            },
            "participant":[
               {
                  "type":[
                     {
                        "coding":[
                           {
                              "display":"attender",
                              "code":"ATND",
                              "system":"http://terminology.hl7.org/CodeSystem/v3-ParticipationType"
                           }
                        ]
                     }
                  ],
                  "individual":{
                     "reference":"Practitioner/09090909-0909-4909-8909-090909090909"
                  }
               }
            ],
            "identifier":[
               {
                  "type":{
                     "text":"visit number",
                     "coding":[
                        {
                           "system":"http://terminology.hl7.org/CodeSystem/v2-0203",
                           "code":"VN"
                        }
                     ]
                  }
               }
            ]
         },
         "request":{
            "url":"Encounter/0a0a0a0a-0a0a-4a0a-8a0a-0a0a0a0a0a0a",
            "method":"PUT"
         }
      }
   ],
   "timestamp":"2019-04-23T11:39:10.234423Z",
   "identifier":{
      "value":"8899-39"
   },
   "resourceType":"Bundle"
}
