{
   "identifier":{
      "value":"459"
   },
   "resourceType":"Bundle",
   "type":"transaction",
   "entry":[
      {
         "resource":{
            "resourceType":"Organization",
            "identifier":[
               {
                  "value":"SFAC"
               }
            ],
            "address":[
               {
                  "country":"44"
               }
            ],
            "id":"01010101-0101-4101-8101-010101010101"
         },
         "request":{
            "method":"PUT",
            "url":"Organization/01010101-0101-4101-8101-010101010101"
         }
      },
      {
         "resource":{
            "id":"02020202-0202-4202-8202-020202020202",
            "resourceType":"Organization",
            "identifier":[
               {
                  "value":"RFAC"
               }
            ]
         },
         "request":{
            "url":"Organization/02020202-0202-4202-8202-020202020202",
            "method":"PUT"
         }
      },
      {
         "resource":{
            "source":{
               "name":"SIMHOSP",
               "endpoint":"unknown"
            },
            "sender":{
               "reference":"Organization/01010101-0101-4101-8101-010101010101"
            },
            "destination":[
               {
                  "endpoint":"unknown",
                  "receiver":{
                     "reference":"Organization/02020202-0202-4202-8202-020202020202"
                  },
                  "name":"RAPP"
               }
            ],
            "eventCoding":{
               "display":"ADT^A03^",
               "system":"http://terminology.hl7.org/CodeSystem/v2-0003",
               "code":"A03"
            },
            "meta":{
               "tag":[
                  {
                     "system":"http://terminology.hl7.org/CodeSystem/v2-0103",
                     "code":"T"
                  },
                  {
                     "system":"http://terminology.hl7.org/CodeSystem/v2-0207"
                  }
               ]
            },
            "id":"03030303-0303-4303-8303-030303030303",
            "resourceType":"MessageHeader"
         },
         "request":{
            "method":"PUT",
            "url":"MessageHeader/03030303-0303-4303-8303-030303030303"
         }
      },
      {
         "request":{
            "method":"PUT",
            "url":"Device/04040404-0404-4404-8404-040404040404"
         },
         "resource":{
            "id":"04040404-0404-4404-8404-040404040404",
            "resourceType":"Device",
            "identifier":[
               {
                  "value":"SIMHOSP"
               }
            ]
         }
      },
      {
         "request":{
            "method":"PUT",
            "url":"Provenance/05050505-0505-4505-8505-050505050505"
         },
         "resource":{
            "target":[
               {
                  "reference":"MessageHeader/03030303-0303-4303-8303-030303030303"
               }
            ],
            "id":"05050505-0505-4505-8505-050505050505",
            "resourceType":"Provenance",
            "agent":[
               {
                  "who":{
                     "reference":"Device/04040404-0404-4404-8404-040404040404"
                  }
               }
            ],
            "recorded":"2020-05-26T16:59:46.265526Z"
         }
      },
      {
         "resource":{
            "resourceType":"Organization",
            "name":"FAMILY PRACTICE",
            "identifier":[
               {
                  "type":{
                     "coding":[
                        {
                           "system":"http://terminology.hl7.org/CodeSystem/v2-0203"
                        }
                     ]
                  },
                  "value":"12345"
               }
            ],
            "id":"06060606-0606-4606-8606-060606060606"
         },
         "request":{
            "method":"PUT",
            "url":"Organization/06060606-0606-4606-8606-060606060606"
         }
      },
      {
         "resource":{
            "generalPractitioner":[
               {
                  "reference":"Organization/06060606-0606-4606-8606-060606060606"
               }
            ],
            "birthDate":"1922-08-23",
            "address":[
               {
                  "postalCode":"JX38 5BL",
                  "country":"GBR",
                  "line":[
                     "18 Peanut House",
                     "Boots Square"
                  ],
                  "city":"Ilford"
               }
            ],
            "telecom":[
               {
                  "value":"020 9338 2732",
                  "use":"home"
               }
            ],
            "resourceType":"Patient",
            "multipleBirthBoolean":false,
            "gender":"female",
            "identifier":[
               {
                  "type":{
                     "coding":[
                        {
                           "code":"MRN"
                        }
                     ]
                  },
                  "value":"2520926396"
               },
               {
                  "type":{
                     "coding":[
                        {
                           "code":"MRN"
                        }
                     ]
                  },
                  "value":"2520926396"
               },
               {
                  "value":"7044531865",
                  "type":{
                     "coding":[
                        {
                           "code":"NHSNMBR"
                        }
                     ]
                  }
               },
               {
                  "system":"http://hl7.org/fhir/sid/us-ssn",
                  "type":{
                     "coding":[
                        {
                           "code":"SB",
                           "system":"http://terminology.hl7.org/CodeSystem/v2-0203"
                        }
                     ]
                  }
               },
               {
                  "type":{
                     "coding":[
                        {
                           "system":"http://terminology.hl7.org/CodeSystem/v2-0203",
                           "code":"DL"
                        }
                     ]
                  }
               }
            ],
            "active":true,
            "name":[
               {
                  "given":[
                     "AKI Scenario 20"
                  ],
                  "prefix":[
                     "Mrs"
                  ],
                  "use":"anonymous",
                  "family":"Twentyman"
               }
            ],
            "id":"07070707-0707-4707-8707-070707070707"
         },
         "request":{
            "method":"PUT",
            "url":"Patient/07070707-0707-4707-8707-070707070707"
         }
      },
      {
         "resource":{
            "physicalType":{
               "coding":[
                  {
                     "system":"http://terminology.hl7.org/CodeSystem/location-physical-type",
                     "code":"si"
                  }
               ]
            },
            "id":"0b0b0b0b-0b0b-4b0b-8b0b-0b0b0b0b0b0b",
            "partOf":{
               "reference":"Location/09090909-0909-4909-8909-090909090909"
            },
            "resourceType":"Location",
            "name":"RenalWard",
            "mode":"instance"
         },
         "request":{
            "method":"PUT",
            "url":"Location/0b0b0b0b-0b0b-4b0b-8b0b-0b0b0b0b0b0b"
         }
      },
      {
         "resource":{
            "partOf":{
               "reference":"Location/0b0b0b0b-0b0b-4b0b-8b0b-0b0b0b0b0b0b"
            },
            "id":"0c0c0c0c-0c0c-4c0c-8c0c-0c0c0c0c0c0c",
            "resourceType":"Location",
            "name":"MainRoom",
            "mode":"instance",
            "physicalType":{
               "coding":[
                  {
                     "code":"ro",
                     "system":"http://terminology.hl7.org/CodeSystem/location-physical-type"
                  }
               ]
            }
         },
         "request":{
            "url":"Location/0c0c0c0c-0c0c-4c0c-8c0c-0c0c0c0c0c0c",
            "method":"PUT"
         }
      },
      {
         "resource":{
            "physicalType":{
               "coding":[
                  {
                     "code":"bd",
                     "system":"http://terminology.hl7.org/CodeSystem/location-physical-type"
                  }
               ]
            },
            "id":"0d0d0d0d-0d0d-4d0d-8d0d-0d0d0d0d0d0d",
            "partOf":{
               "reference":"Location/0c0c0c0c-0c0c-4c0c-8c0c-0c0c0c0c0c0c"
            },
            "resourceType":"Location",
            "name":"Bed 4",
            "mode":"instance"
         },
         "request":{
            "method":"PUT",
            "url":"Location/0d0d0d0d-0d0d-4d0d-8d0d-0d0d0d0d0d0d"
         }
      },
      {
         "request":{
            "method":"PUT",
            "url":"Location/08080808-0808-4808-8808-080808080808"
         },
         "resource":{
            "name":"Simulated Hospital",
            "mode":"instance",
            "physicalType":{
               "coding":[
                  {
                     "system":"http://terminology.hl7.org/CodeSystem/location-physical-type",
                     "code":"si"
                  }
               ]
            },
            "id":"08080808-0808-4808-8808-080808080808",
            "resourceType":"Location"
         }
      },
      {
         "resource":{
            "name":"Main Building",
            "mode":"instance",
            "physicalType":{
               "coding":[
                  {
                     "code":"bu",
                     "system":"http://terminology.hl7.org/CodeSystem/location-physical-type"
                  }
               ]
            },
            "id":"09090909-0909-4909-8909-090909090909",
            "partOf":{
               "reference":"Location/08080808-0808-4808-8808-080808080808"
            },
            "resourceType":"Location"
         },
         "request":{
            "method":"PUT",
            "url":"Location/09090909-0909-4909-8909-090909090909"
         }
      },
      {
         "request":{
            "url":"Location/0a0a0a0a-0a0a-4a0a-8a0a-0a0a0a0a0a0a",
            "method":"PUT"
         },
         "resource":{
            "physicalType":{
               "coding":[
                  {
                     "system":"http://terminology.hl7.org/CodeSystem/location-physical-type",
                     "code":"lvl"
                  }
               ]
            },
            "id":"0a0a0a0a-0a0a-4a0a-8a0a-0a0a0a0a0a0a",
            "resourceType":"Location",
            "name":"5",
            "mode":"instance",
            "partOf":{
               "reference":"Location/09090909-0909-4909-8909-090909090909"
            }
         }
      },
      {
         "resource":{
            "resourceType":"Practitioner",
            "identifier":[
               {
                  "value":"C002",
                  "type":{
                     "coding":[
                        {
                           "code":"ORGDR"
                        }
                     ]
                  }
               }
            ],
            "name":[
               {
                  "prefix":[
                     "Dr"
                  ],
                  "use":"anonymous",
                  "family":"Smith",
                  "given":[
                     "Elizabeth"
                  ]
               }
            ],
            "id":"0e0e0e0e-0e0e-4e0e-8e0e-0e0e0e0e0e0e"
         },
         "request":{
            "method":"PUT",
            "url":"Practitioner/0e0e0e0e-0e0e-4e0e-8e0e-0e0e0e0e0e0e"
         }
      },
      {
         "resource":{
            "status":"finished",
            "location":[
               {
                  "status":"active",
                  "location":{
                     "reference":"Location/0b0b0b0b-0b0b-4b0b-8b0b-0b0b0b0b0b0b"
                  }
               },
               {
                  "location":{
                     "reference":"Location/0c0c0c0c-0c0c-4c0c-8c0c-0c0c0c0c0c0c"
                  },
                  "status":"active"
               },
               {
                  "location":{
                     "reference":"Location/0d0d0d0d-0d0d-4d0d-8d0d-0d0d0d0d0d0d"
                  },
                  "status":"active"
               },
               {
                  "location":{
                     "reference":"Location/08080808-0808-4808-8808-080808080808"
                  },
                  "status":"active"
               },
               {
                  "location":{
                     "reference":"Location/09090909-0909-4909-8909-090909090909"
                  },
                  "status":"active"
               },
               {
                  "location":{
                     "reference":"Location/0a0a0a0a-0a0a-4a0a-8a0a-0a0a0a0a0a0a"
                  },
                  "status":"active"
               }
            ],
            "type":[
               {
                  "coding":[
                     {
                        "code":"28b"
                     }
                  ]
               }
            ],
            "subject":{
               "reference":"Patient/07070707-0707-4707-8707-070707070707"
            },
            "resourceType":"Encounter",
            "id":"0f0f0f0f-0f0f-4f0f-8f0f-0f0f0f0f0f0f",
            "identifier":[
               {
                  "value":"11870689264684613798",
                  "type":{
                     "coding":[
                        {
                           "code":"visitid",
                           "system":"http://terminology.hl7.org/CodeSystem/v2-0203"
                        }
                     ],
                     "text":"visit number"
                  }
               }
            ],
            "period":{
               "end":"2020-05-26T16:59:46+05:00",
               "start":"2020-05-26T16:19:17+05:00"
            },
            "class":{
               "code":"IMP",
               "version":"v1",
               "display":"inpatient encounter",
               "system":"http://terminology.hl7.org/CodeSystem/v3-ActCode"
            },
            "participant":[
               {
                  "type":[
                     {
                        "coding":[
                           {
                              "system":"http://terminology.hl7.org/CodeSystem/v3-ParticipationType",
                              "display":"attender",
                              "code":"ATND"
                           }
                        ]
                     }
                  ],
                  "individual":{
                     "reference":"Practitioner/0e0e0e0e-0e0e-4e0e-8e0e-0e0e0e0e0e0e"
                  }
               }
            ]
         },
         "request":{
            "url":"Encounter/0f0f0f0f-0f0f-4f0f-8f0f-0f0f0f0f0f0f",
            "method":"PUT"
         }
      },
      {
         "resource":{
            "resourceType":"AllergyIntolerance",
            "type":"allergy",
            "onsetDateTime":"2019-09-17T16:19:18+09:00",
            "patient":{
               "reference":"Patient/07070707-0707-4707-8707-070707070707"
            },
            "verificationStatus":{
               "coding":[
                  {
                     "code":"confirmed"
                  }
               ]
            },
            "reaction":[
               {
                  "manifestation":[
                     {
                        "text":"Place Holder"
                     }
                  ],
                  "severity":"moderate"
               }
            ],
            "category":[
               "food"
            ],
            "id":"10101010-1010-4010-9010-101010101010",
            "code":{
               "coding":[
                  {
                     "code":"418471000",
                     "display":"Propensity to adverse reactions to food (disorder)",
                     "system":"SNM3"
                  }
               ]
            }
         },
         "request":{
            "url":"AllergyIntolerance/10101010-1010-4010-9010-101010101010",
            "method":"PUT"
         }
      },
      {
         "resource":{
            "verificationStatus":{
               "coding":[
                  {
                     "code":"confirmed"
                  }
               ]
            },
            "reaction":[
               {
                  "manifestation":[
                     {
                        "text":"Place Holder"
                     }
                  ],
                  "severity":"severe"
               }
            ],
            "onsetDateTime":"2019-06-30T16:19:18+06:00",
            "id":"11111111-1111-4111-9111-111111111111",
            "category":[
               "food"
            ],
            "resourceType":"AllergyIntolerance",
            "code":{
               "coding":[
                  {
                     "code":"59037007",
                     "display":"Drug intolerance (disorder)",
                     "system":"SNM3"
                  }
               ]
            },
            "patient":{
               "reference":"Patient/07070707-0707-4707-8707-070707070707"
            },
            "type":"allergy"
         },
         "request":{
            "method":"PUT",
            "url":"AllergyIntolerance/11111111-1111-4111-9111-111111111111"
         }
      }
   ],
   "timestamp":"2020-05-26T16:59:46.265526Z"
}
