{
   "timestamp":"2018-03-01T01:00:00.1331Z",
   "identifier":{
      "value":"IHS-20180301010000.00120"
   },
   "resourceType":"Bundle",
   "type":"transaction",
   "entry":[
      {
         "resource":{
            "resourceType":"Organization",
            "identifier":[
               {
                  "value":"UNV"
               }
            ],
            "id":"01010101-0101-4101-8101-010101010101"
         },
         "request":{
            "method":"PUT",
            "url":"Organization/01010101-0101-4101-8101-010101010101"
         }
      },
      {
         "request":{
            "url":"Organization/02020202-0202-4202-8202-020202020202",
            "method":"PUT"
         },
         "resource":{
            "resourceType":"Organization",
            "identifier":[
               {
                  "value":"UNV"
               }
            ],
            "id":"02020202-0202-4202-8202-020202020202"
         }
      },
      {
         "request":{
            "method":"PUT",
            "url":"MessageHeader/03030303-0303-4303-8303-030303030303"
         },
         "resource":{
            "eventCoding":{
               "code":"A04",
               "display":"ADT^A04^",
               "system":"http://terminology.hl7.org/CodeSystem/v2-0003"
            },
            "meta":{
               "tag":[
                  {
                     "code":"P",
                     "system":"http://terminology.hl7.org/CodeSystem/v2-0103"
                  },
                  {
                     "system":"http://terminology.hl7.org/CodeSystem/v2-0207"
                  }
               ]
            },
            "id":"03030303-0303-4303-8303-030303030303",
            "resourceType":"MessageHeader",
            "source":{
               "name":"MS4_AZ",
               "endpoint":"unknown"
            },
            "sender":{
               "reference":"Organization/01010101-0101-4101-8101-010101010101"
            },
            "destination":[
               {
                  "name":"PREMISE",
                  "endpoint":"unknown",
                  "receiver":{
                     "reference":"Organization/02020202-0202-4202-8202-020202020202"
                  }
               }
            ]
         }
      },
      {
         "resource":{
            "id":"04040404-0404-4404-8404-040404040404",
            "resourceType":"Device",
            "identifier":[
               {
                  "value":"MS4_AZ"
               }
            ]
         },
         "request":{
            "method":"PUT",
            "url":"Device/04040404-0404-4404-8404-040404040404"
         }
      },
      {
         "request":{
            "method":"PUT",
            "url":"Provenance/05050505-0505-4505-8505-050505050505"
         },
         "resource":{
            "recorded":"2018-03-01T01:00:00.1331Z",
            "target":[
               {
                  "reference":"MessageHeader/03030303-0303-4303-8303-030303030303"
               }
            ],
            "id":"05050505-0505-4505-8505-050505050505",
            "resourceType":"Provenance",
            "agent":[
               {
                  "who":{
                     "reference":"Device/04040404-0404-4404-8404-040404040404"
                  }
               }
            ]
         }
      },
      {
         "resource":{
            "address":[
               {
                  "state":"ID",
                  "postalCode":"83523",
                  "country":"USA",
                  "line":[
                     "1234 LOONEY RD",
                     "APT A"
                  ],
                  "city":"CRAIGMONT"
               }
            ],
            "id":"06060606-0606-4606-8606-060606060606",
            "active":true,
            "multipleBirthBoolean":false,
            "resourceType":"Patient",
            "birthDate":"1983-02-15",
            "identifier":[
               {
                  "value":"19050114293307.1082"
               },
               {
                  "system":"http://hl7.org/fhir/sid/us-ssn",
                  "value":"111-11-1111",
                  "type":{
                     "coding":[
                        {
                           "code":"SB",
                           "system":"http://terminology.hl7.org/CodeSystem/v2-0203"
                        }
                     ]
                  }
               },
               {
                  "type":{
                     "coding":[
                        {
                           "system":"http://terminology.hl7.org/CodeSystem/v2-0203",
                           "code":"DL"
                        }
                     ]
                  }
               }
            ],
            "gender":"male",
            "name":[
               {
                  "given":[
                     "BUGS",
                     "RABBIT"
                  ],
                  "suffix":[
                     "MS"
                  ],
                  "family":"BUNNY"
               }
            ]
         },
         "request":{
            "method":"PUT",
            "url":"Patient/06060606-0606-4606-8606-060606060606"
         }
      },
      {
         "resource":{
            "status":"active",
            "id":"07070707-0707-4707-8707-070707070707",
            "resourceType":"Account",
            "identifier":[
               {
                  "value":"111-11-1111"
               }
            ],
            "subject":[
               {
                  "reference":"Patient/06060606-0606-4606-8606-060606060606"
               }
            ]
         },
         "request":{
            "url":"Account/07070707-0707-4707-8707-070707070707",
            "method":"PUT"
         }
      },
      {
         "request":{
            "method":"PUT",
            "url":"Location/0b0b0b0b-0b0b-4b0b-8b0b-0b0b0b0b0b0b"
         },
         "resource":{
            "id":"0b0b0b0b-0b0b-4b0b-8b0b-0b0b0b0b0b0b",
            "resourceType":"Location",
            "partOf":{
               "reference":"Location/09090909-0909-4909-8909-090909090909"
            },
            "name":"ED",
            "mode":"instance",
            "physicalType":{
               "coding":[
                  {
                     "system":"http://terminology.hl7.org/CodeSystem/location-physical-type",
                     "code":"si"
                  }
               ]
            }
         }
      },
      {
         "resource":{
            "id":"0c0c0c0c-0c0c-4c0c-8c0c-0c0c0c0c0c0c",
            "partOf":{
               "reference":"Location/0b0b0b0b-0b0b-4b0b-8b0b-0b0b0b0b0b0b"
            },
            "resourceType":"Location",
            "mode":"instance",
            "physicalType":{
               "coding":[
                  {
                     "system":"http://terminology.hl7.org/CodeSystem/location-physical-type",
                     "code":"ro"
                  }
               ]
            }
         },
         "request":{
            "method":"PUT",
            "url":"Location/0c0c0c0c-0c0c-4c0c-8c0c-0c0c0c0c0c0c"
         }
      },
      {
         "request":{
            "method":"PUT",
            "url":"Location/0d0d0d0d-0d0d-4d0d-8d0d-0d0d0d0d0d0d"
         },
         "resource":{
            "id":"0d0d0d0d-0d0d-4d0d-8d0d-0d0d0d0d0d0d",
            "resourceType":"Location",
            "mode":"instance",
            "partOf":{
               "reference":"Location/0c0c0c0c-0c0c-4c0c-8c0c-0c0c0c0c0c0c"
            },
            "physicalType":{
               "coding":[
                  {
                     "code":"bd",
                     "system":"http://terminology.hl7.org/CodeSystem/location-physical-type"
                  }
               ]
            }
         }
      },
      {
         "resource":{
            "name":"UNV",
            "mode":"instance",
            "physicalType":{
               "coding":[
                  {
                     "code":"si",
                     "system":"http://terminology.hl7.org/CodeSystem/location-physical-type"
                  }
               ]
            },
            "id":"08080808-0808-4808-8808-080808080808",
            "resourceType":"Location"
         },
         "request":{
            "method":"PUT",
            "url":"Location/08080808-0808-4808-8808-080808080808"
         }
      },
      {
         "request":{
            "method":"PUT",
            "url":"Location/09090909-0909-4909-8909-090909090909"
         },
         "resource":{
            "id":"09090909-0909-4909-8909-090909090909",
            "partOf":{
               "reference":"Location/08080808-0808-4808-8808-080808080808"
            },
            "resourceType":"Location",
            "mode":"instance",
            "physicalType":{
               "coding":[
                  {
                     "code":"bu",
                     "system":"http://terminology.hl7.org/CodeSystem/location-physical-type"
                  }
               ]
            }
         }
      },
      {
         "request":{
            "url":"Location/0a0a0a0a-0a0a-4a0a-8a0a-0a0a0a0a0a0a",
            "method":"PUT"
         },
         "resource":{
            "id":"0a0a0a0a-0a0a-4a0a-8a0a-0a0a0a0a0a0a",
            "resourceType":"Location",
            "mode":"instance",
            "physicalType":{
               "coding":[
                  {
                     "code":"lvl",
                     "system":"http://terminology.hl7.org/CodeSystem/location-physical-type"
                  }
               ]
            },
            "partOf":{
               "reference":"Location/09090909-0909-4909-8909-090909090909"
            }
         }
      },
      {
         "request":{
            "method":"PUT",
            "url":"Practitioner/0e0e0e0e-0e0e-4e0e-8e0e-0e0e0e0e0e0e"
         },
         "resource":{
            "id":"0e0e0e0e-0e0e-4e0e-8e0e-0e0e0e0e0e0e",
            "resourceType":"Practitioner",
            "identifier":[
               {
                  "value":"999-99-9999"
               }
            ],
            "name":[
               {
                  "suffix":[
                     "MD"
                  ],
                  "prefix":[
                     "DR"
                  ],
                  "family":"MUNCHER",
                  "given":[
                     "CHANDRA",
                     "ANDRIA"
                  ]
               }
            ]
         }
      },
      {
         "resource":{
            "name":[
               {
                  "given":[
                     "ANNETTA",
                     "JONI"
                  ],
                  "suffix":[
                     "MD"
                  ],
                  "prefix":[
                     "DR"
                  ],
                  "family":"SMETHERS"
               }
            ],
            "id":"0f0f0f0f-0f0f-4f0f-8f0f-0f0f0f0f0f0f",
            "resourceType":"Practitioner",
            "identifier":[
               {
                  "value":"888-88-8888"
               }
            ]
         },
         "request":{
            "url":"Practitioner/0f0f0f0f-0f0f-4f0f-8f0f-0f0f0f0f0f0f",
            "method":"PUT"
         }
      },
      {
         "request":{
            "method":"PUT",
            "url":"Encounter/10101010-1010-4010-9010-101010101010"
         },
         "resource":{
            "type":[
               {
                  "coding":[
                     {
                        "code":"C"
                     }
                  ]
               }
            ],
            "participant":[
               {
                  "type":[
                     {
                        "coding":[
                           {
                              "system":"http://terminology.hl7.org/CodeSystem/v3-ParticipationType",
                              "display":"attender",
                              "code":"ATND"
                           }
                        ]
                     }
                  ],
                  "individual":{
                     "reference":"Practitioner/0e0e0e0e-0e0e-4e0e-8e0e-0e0e0e0e0e0e"
                  }
               },
               {
                  "type":[
                     {
                        "coding":[
                           {
                              "display":"referrer",
                              "code":"REF",
                              "system":"http://terminology.hl7.org/CodeSystem/v3-ParticipationType"
                           }
                        ]
                     }
                  ],
                  "individual":{
                     "reference":"Practitioner/0f0f0f0f-0f0f-4f0f-8f0f-0f0f0f0f0f0f"
                  }
               }
            ],
            "resourceType":"Encounter",
            "subject":{
               "reference":"Patient/06060606-0606-4606-8606-060606060606"
            },
            "id":"10101010-1010-4010-9010-101010101010",
            "location":[
               {
                  "location":{
                     "reference":"Location/0b0b0b0b-0b0b-4b0b-8b0b-0b0b0b0b0b0b"
                  },
                  "status":"active"
               },
               {
                  "status":"active",
                  "location":{
                     "reference":"Location/0c0c0c0c-0c0c-4c0c-8c0c-0c0c0c0c0c0c"
                  }
               },
               {
                  "location":{
                     "reference":"Location/0d0d0d0d-0d0d-4d0d-8d0d-0d0d0d0d0d0d"
                  },
                  "status":"active"
               },
               {
                  "location":{
                     "reference":"Location/08080808-0808-4808-8808-080808080808"
                  },
                  "status":"active"
               },
               {
                  "location":{
                     "reference":"Location/09090909-0909-4909-8909-090909090909"
                  },
                  "status":"active"
               },
               {
                  "location":{
                     "reference":"Location/0a0a0a0a-0a0a-4a0a-8a0a-0a0a0a0a0a0a"
                  },
                  "status":"active"
               }
            ],
            "identifier":[
               {
                  "type":{
                     "coding":[
                        {
                           "system":"http://terminology.hl7.org/CodeSystem/v2-0203",
                           "code":"VN"
                        }
                     ],
                     "text":"visit number"
                  }
               }
            ],
            "class":{
               "display":"emergency",
               "system":"http://terminology.hl7.org/CodeSystem/v3-ActCode",
               "code":"EMER",
               "version":"v1"
            },
            "status":"in-progress",
            "period":{
               "start":"2018-03-01T01:00:00+03:00"
            },
            "hospitalization":{
               "admitSource":{
                  "coding":[
                     {
                        "code":"7"
                     }
                  ]
               }
            }
         }
      }
   ]
}
