{
   "resourceType":"Bundle",
   "type":"transaction",
   "entry":[
      {
         "request":{
            "url":"Organization/01010101-0101-4101-8101-010101010101",
            "method":"PUT"
         },
         "resource":{
            "resourceType":"Organization",
            "address":[
               {
                  "country":"44"
               }
            ],
            "identifier":[
               {
                  "value":"SFAC"
               }
            ],
            "id":"01010101-0101-4101-8101-010101010101"
         }
      },
      {
         "resource":{
            "identifier":[
               {
                  "value":"RFAC"
               }
            ],
            "id":"02020202-0202-4202-8202-020202020202",
            "resourceType":"Organization"
         },
         "request":{
            "url":"Organization/02020202-0202-4202-8202-020202020202",
            "method":"PUT"
         }
      },
      {
         "resource":{
            "sender":{
               "reference":"Organization/01010101-0101-4101-8101-010101010101"
            },
            "destination":[
               {
                  "receiver":{
                     "reference":"Organization/02020202-0202-4202-8202-020202020202"
                  },
                  "endpoint":"unknown",
                  "name":"RAPP"
               }
            ],
            "eventCoding":{
               "display":"ADT^A01^",
               "system":"http://terminology.hl7.org/CodeSystem/v2-0003",
               "code":"A01"
            },
            "meta":{
               "tag":[
                  {
                     "system":"http://terminology.hl7.org/CodeSystem/v2-0103",
                     "code":"T"
                  },
                  {
                     "system":"http://terminology.hl7.org/CodeSystem/v2-0207"
                  }
               ]
            },
            "id":"03030303-0303-4303-8303-030303030303",
            "resourceType":"MessageHeader",
            "source":{
               "name":"SIMHOSP",
               "endpoint":"unknown"
            }
         },
         "request":{
            "url":"MessageHeader/03030303-0303-4303-8303-030303030303",
            "method":"PUT"
         }
      },
      {
         "resource":{
            "id":"04040404-0404-4404-8404-040404040404",
            "resourceType":"Device",
            "identifier":[
               {
                  "value":"SIMHOSP"
               }
            ]
         },
         "request":{
            "url":"Device/04040404-0404-4404-8404-040404040404",
            "method":"PUT"
         }
      },
      {
         "resource":{
            "target":[
               {
                  "reference":"MessageHeader/03030303-0303-4303-8303-030303030303"
               }
            ],
            "id":"05050505-0505-4505-8505-050505050505",
            "resourceType":"Provenance",
            "agent":[
               {
                  "who":{
                     "reference":"Device/04040404-0404-4404-8404-040404040404"
                  }
               }
            ],
            "recorded":"2020-05-08T13:06:43.8558Z"
         },
         "request":{
            "url":"Provenance/05050505-0505-4505-8505-050505050505",
            "method":"PUT"
         }
      },
      {
         "request":{
            "method":"PUT",
            "url":"Organization/06060606-0606-4606-8606-060606060606"
         },
         "resource":{
            "identifier":[
               {
                  "type":{
                     "coding":[
                        {
                           "system":"http://terminology.hl7.org/CodeSystem/v2-0203"
                        }
                     ]
                  },
                  "value":"12345"
               }
            ],
            "id":"06060606-0606-4606-8606-060606060606",
            "resourceType":"Organization",
            "name":"FAMILY PRACTICE"
         }
      },
      {
         "request":{
            "url":"Patient/07070707-0707-4707-8707-070707070707",
            "method":"PUT"
         },
         "resource":{
            "name":[
               {
                  "family":"Esterkin",
                  "given":[
                     "AKI Scenario 6"
                  ],
                  "prefix":[
                     "Miss"
                  ],
                  "use":"anonymous"
               }
            ],
            "gender":"female",
            "address":[
               {
                  "line":[
                     "170 Juice Place"
                  ],
                  "city":"London",
                  "postalCode":"RW21 6KC",
                  "country":"GBR"
               }
            ],
            "resourceType":"Patient",
            "active":true,
            "identifier":[
               {
                  "type":{
                     "coding":[
                        {
                           "code":"MRN"
                        }
                     ]
                  },
                  "value":"2590157853"
               },
               {
                  "value":"2590157853",
                  "type":{
                     "coding":[
                        {
                           "code":"MRN"
                        }
                     ]
                  }
               },
               {
                  "type":{
                     "coding":[
                        {
                           "code":"NHSNMBR"
                        }
                     ]
                  },
                  "value":"2478684691"
               },
               {
                  "system":"http://hl7.org/fhir/sid/us-ssn",
                  "type":{
                     "coding":[
                        {
                           "code":"SB",
                           "system":"http://terminology.hl7.org/CodeSystem/v2-0203"
                        }
                     ]
                  }
               },
               {
                  "type":{
                     "coding":[
                        {
                           "system":"http://terminology.hl7.org/CodeSystem/v2-0203",
                           "code":"DL"
                        }
                     ]
                  }
               }
            ],
            "telecom":[
               {
                  "value":"020 5368 1665",
                  "system":"phone",
                  "use":"home"
               }
            ],
            "multipleBirthBoolean":false,
            "id":"07070707-0707-4707-8707-070707070707",
            "generalPractitioner":[
               {
                  "reference":"Organization/06060606-0606-4606-8606-060606060606"
               }
            ],
            "birthDate":"1989-01-18"
         }
      },
      {
         "request":{
            "method":"PUT",
            "url":"Location/0b0b0b0b-0b0b-4b0b-8b0b-0b0b0b0b0b0b"
         },
         "resource":{
            "mode":"instance",
            "physicalType":{
               "coding":[
                  {
                     "code":"si",
                     "system":"http://terminology.hl7.org/CodeSystem/location-physical-type"
                  }
               ]
            },
            "id":"0b0b0b0b-0b0b-4b0b-8b0b-0b0b0b0b0b0b",
            "resourceType":"Location",
            "name":"RenalWard",
            "partOf":{
               "reference":"Location/09090909-0909-4909-8909-090909090909"
            }
         }
      },
      {
         "resource":{
            "id":"0c0c0c0c-0c0c-4c0c-8c0c-0c0c0c0c0c0c",
            "resourceType":"Location",
            "name":"MainRoom",
            "mode":"instance",
            "physicalType":{
               "coding":[
                  {
                     "code":"ro",
                     "system":"http://terminology.hl7.org/CodeSystem/location-physical-type"
                  }
               ]
            },
            "partOf":{
               "reference":"Location/0b0b0b0b-0b0b-4b0b-8b0b-0b0b0b0b0b0b"
            }
         },
         "request":{
            "method":"PUT",
            "url":"Location/0c0c0c0c-0c0c-4c0c-8c0c-0c0c0c0c0c0c"
         }
      },
      {
         "resource":{
            "mode":"instance",
            "physicalType":{
               "coding":[
                  {
                     "system":"http://terminology.hl7.org/CodeSystem/location-physical-type",
                     "code":"bd"
                  }
               ]
            },
            "id":"0d0d0d0d-0d0d-4d0d-8d0d-0d0d0d0d0d0d",
            "partOf":{
               "reference":"Location/0c0c0c0c-0c0c-4c0c-8c0c-0c0c0c0c0c0c"
            },
            "resourceType":"Location",
            "name":"Bed 1"
         },
         "request":{
            "method":"PUT",
            "url":"Location/0d0d0d0d-0d0d-4d0d-8d0d-0d0d0d0d0d0d"
         }
      },
      {
         "request":{
            "method":"PUT",
            "url":"Location/08080808-0808-4808-8808-080808080808"
         },
         "resource":{
            "physicalType":{
               "coding":[
                  {
                     "system":"http://terminology.hl7.org/CodeSystem/location-physical-type",
                     "code":"si"
                  }
               ]
            },
            "id":"08080808-0808-4808-8808-080808080808",
            "resourceType":"Location",
            "name":"Simulated Hospital",
            "mode":"instance"
         }
      },
      {
         "resource":{
            "name":"Main Building",
            "mode":"instance",
            "physicalType":{
               "coding":[
                  {
                     "code":"bu",
                     "system":"http://terminology.hl7.org/CodeSystem/location-physical-type"
                  }
               ]
            },
            "id":"09090909-0909-4909-8909-090909090909",
            "resourceType":"Location",
            "partOf":{
               "reference":"Location/08080808-0808-4808-8808-080808080808"
            }
         },
         "request":{
            "method":"PUT",
            "url":"Location/09090909-0909-4909-8909-090909090909"
         }
      },
      {
         "request":{
            "method":"PUT",
            "url":"Location/0a0a0a0a-0a0a-4a0a-8a0a-0a0a0a0a0a0a"
         },
         "resource":{
            "physicalType":{
               "coding":[
                  {
                     "system":"http://terminology.hl7.org/CodeSystem/location-physical-type",
                     "code":"lvl"
                  }
               ]
            },
            "id":"0a0a0a0a-0a0a-4a0a-8a0a-0a0a0a0a0a0a",
            "resourceType":"Location",
            "name":"5",
            "mode":"instance",
            "partOf":{
               "reference":"Location/09090909-0909-4909-8909-090909090909"
            }
         }
      },
      {
         "resource":{
            "resourceType":"Practitioner",
            "identifier":[
               {
                  "type":{
                     "coding":[
                        {
                           "code":"ORGDR"
                        }
                     ]
                  },
                  "value":"C006"
               }
            ],
            "name":[
               {
                  "family":"Wolf",
                  "given":[
                     "Kathy"
                  ],
                  "prefix":[
                     "Dr"
                  ],
                  "use":"anonymous"
               }
            ],
            "id":"0e0e0e0e-0e0e-4e0e-8e0e-0e0e0e0e0e0e"
         },
         "request":{
            "method":"PUT",
            "url":"Practitioner/0e0e0e0e-0e0e-4e0e-8e0e-0e0e0e0e0e0e"
         }
      },
      {
         "request":{
            "method":"PUT",
            "url":"Encounter/0f0f0f0f-0f0f-4f0f-8f0f-0f0f0f0f0f0f"
         },
         "resource":{
            "participant":[
               {
                  "type":[
                     {
                        "coding":[
                           {
                              "code":"ATND",
                              "system":"http://terminology.hl7.org/CodeSystem/v3-ParticipationType",
                              "display":"attender"
                           }
                        ]
                     }
                  ],
                  "individual":{
                     "reference":"Practitioner/0e0e0e0e-0e0e-4e0e-8e0e-0e0e0e0e0e0e"
                  }
               }
            ],
            "class":{
               "display":"inpatient encounter",
               "system":"http://terminology.hl7.org/CodeSystem/v3-ActCode",
               "code":"IMP",
               "version":"v1"
            },
            "resourceType":"Encounter",
            "type":[
               {
                  "coding":[
                     {
                        "code":"28b"
                     }
                  ]
               }
            ],
            "id":"0f0f0f0f-0f0f-4f0f-8f0f-0f0f0f0f0f0f",
            "period":{
               "start":"2020-05-08T13:06:43+05:00"
            },
            "subject":{
               "reference":"Patient/07070707-0707-4707-8707-070707070707"
            },
            "location":[
               {
                  "status":"active",
                  "location":{
                     "reference":"Location/0b0b0b0b-0b0b-4b0b-8b0b-0b0b0b0b0b0b"
                  }
               },
               {
                  "location":{
                     "reference":"Location/0c0c0c0c-0c0c-4c0c-8c0c-0c0c0c0c0c0c"
                  },
                  "status":"active"
               },
               {
                  "location":{
                     "reference":"Location/0d0d0d0d-0d0d-4d0d-8d0d-0d0d0d0d0d0d"
                  },
                  "status":"active"
               },
               {
                  "status":"active",
                  "location":{
                     "reference":"Location/08080808-0808-4808-8808-080808080808"
                  }
               },
               {
                  "status":"active",
                  "location":{
                     "reference":"Location/09090909-0909-4909-8909-090909090909"
                  }
               },
               {
                  "status":"active",
                  "location":{
                     "reference":"Location/0a0a0a0a-0a0a-4a0a-8a0a-0a0a0a0a0a0a"
                  }
               }
            ],
            "status":"unknown",
            "identifier":[
               {
                  "value":"6145914547062969032",
                  "type":{
                     "coding":[
                        {
                           "code":"visitid",
                           "system":"http://terminology.hl7.org/CodeSystem/v2-0203"
                        }
                     ],
                     "text":"visit number"
                  }
               }
            ]
         }
      }
   ],
   "timestamp":"2020-05-08T13:06:43.8558Z",
   "identifier":{
      "value":"5"
   }
}
