{
   "resourceType":"Bundle",
   "type":"transaction",
   "entry":[
      {
         "resource":{
            "resourceType":"Organization",
            "name":"YIEWSLEY FAMILY PRACTICE",
            "identifier":[
               {
                  "value":"6020",
                  "type":{
                     "coding":[
                        {
                           "system":"http://terminology.hl7.org/CodeSystem/v2-0203",
                           "code":"CLN"
                        }
                     ]
                  }
               }
            ],
            "id":"01010101-0101-4101-8101-010101010101"
         },
         "request":{
            "method":"PUT",
            "url":"Organization/01010101-0101-4101-8101-010101010101"
         }
      },
      {
         "request":{
            "method":"PUT",
            "url":"Practitioner/02020202-0202-4202-8202-020202020202"
         },
         "resource":{
            "name":[
               {
                  "period":{
                     "start":"2018-07-25T14:01:56+07:00",
                     "end":"2018-07-25T14:01:56+07:00"
                  },
                  "family":"Connell",
                  "given":[
                     "Alistair",
                     "Alex"
                  ],
                  "suffix":[
                     "Sr",
                     "MD",
                     "MSc."
                  ],
                  "prefix":[
                     "Dr"
                  ],
                  "use":"official"
               }
            ],
            "id":"02020202-0202-4202-8202-020202020202",
            "resourceType":"Practitioner",
            "identifier":[
               {
                  "value":"C184726198",
                  "type":{
                     "coding":[
                        {
                           "code":"CC"
                        }
                     ]
                  }
               }
            ]
         }
      },
      {
         "request":{
            "method":"PUT",
            "url":"Patient/03030303-0303-4303-8303-030303030303"
         },
         "resource":{
            "meta":{
               "lastUpdated":"2018-07-25T14:01:56+07:00"
            },
            "id":"03030303-0303-4303-8303-030303030303",
            "deceasedDateTime":"2018-07-25T14:01:56+07:00",
            "identifier":[
               {
                  "value":"1419055458",
                  "type":{
                     "coding":[
                        {
                           "code":"MRN"
                        }
                     ]
                  }
               },
               {
                  "type":{
                     "coding":[
                        {
                           "code":"MRN"
                        }
                     ]
                  },
                  "value":"1419055458"
               },
               {
                  "type":{
                     "coding":[
                        {
                           "code":"NHSNMBR"
                        }
                     ]
                  },
                  "value":"3870146052"
               },
               {
                  "value":"1419055459",
                  "type":{
                     "coding":[
                        {
                           "code":"MRN4"
                        }
                     ]
                  }
               },
               {
                  "value":"SSN-48383",
                  "type":{
                     "coding":[
                        {
                           "code":"SB"
                        }
                     ]
                  }
               },
               {
                  "type":{
                     "coding":[
                        {
                           "code":"DL"
                        }
                     ]
                  },
                  "value":"43211234"
               }
            ],
            "multipleBirthInteger":2,
            "maritalStatus":{
               "coding":[
                  {
                     "code":"MARRIED"
                  }
               ]
            },
            "name":[
               {
                  "suffix":[
                     "Jr",
                     "PhD",
                     "Eng."
                  ],
                  "prefix":[
                     "Miss"
                  ],
                  "use":"anonymous",
                  "period":{
                     "start":"2018-07-25T14:01:56+07:00",
                     "end":"2018-07-25T14:01:56+07:00"
                  },
                  "family":"Doe",
                  "given":[
                     "Jane",
                     "Janny"
                  ]
               },
               {
                  "use":"anonymous",
                  "period":{
                     "end":"2018-07-25T14:01:56+07:00",
                     "start":"2018-07-25T14:01:56+07:00"
                  },
                  "family":"Al-Doe",
                  "given":[
                     "Al-Jane",
                     "Al-Janny"
                  ],
                  "suffix":[
                     "Al-Jr",
                     "Al-PhD",
                     "Al-Eng."
                  ],
                  "prefix":[
                     "Al-Miss"
                  ]
               }
            ],
            "telecom":[
               {
                  "value":"020 0921 5742",
                  "use":"home"
               },
               {
                  "use":"work",
                  "value":"020 0921 5748"
               },
               {
                  "value":"020 0921 5700",
                  "use":"home"
               }
            ],
            "address":[
               {
                  "city":"Croydon",
                  "state":"N/A",
                  "postalCode":"SV20 3BC",
                  "country":"GBR",
                  "period":{
                     "end":"2018-07-25T14:01:56+07:00",
                     "start":"2018-07-25T14:01:56+07:00"
                  },
                  "line":[
                     "25 Dahlia House",
                     "Plough Avenue",
                     "Some Guy"
                  ]
               }
            ],
            "active":true,
            "gender":"unknown",
            "resourceType":"Patient",
            "generalPractitioner":[
               {
                  "reference":"Organization/01010101-0101-4101-8101-010101010101"
               },
               {
                  "reference":"Practitioner/02020202-0202-4202-8202-020202020202"
               }
            ],
            "birthDate":"1994-06-15"
         }
      },
      {
         "resource":{
            "identifier":[
               {
                  "value":"1419055678"
               }
            ],
            "subject":[
               {
                  "reference":"Patient/03030303-0303-4303-8303-030303030303"
               }
            ],
            "status":"active",
            "id":"04040404-0404-4404-8404-040404040404",
            "resourceType":"Account"
         },
         "request":{
            "method":"PUT",
            "url":"Account/04040404-0404-4404-8404-040404040404"
         }
      }
   ]
}
