{
   "timestamp":"1988-08-18T11:26:00.188818Z",
   "identifier":{
      "value":"MSG00001"
   },
   "resourceType":"Bundle",
   "type":"transaction",
   "entry":[
      {
         "request":{
            "method":"PUT",
            "url":"Organization/01010101-0101-4101-8101-010101010101"
         },
         "resource":{
            "id":"01010101-0101-4101-8101-010101010101",
            "resourceType":"Organization",
            "identifier":[
               {
                  "value":"GOOD HEALTH HOSPITAL"
               }
            ]
         }
      },
      {
         "request":{
            "method":"PUT",
            "url":"Organization/02020202-0202-4202-8202-020202020202"
         },
         "resource":{
            "resourceType":"Organization",
            "identifier":[
               {
                  "value":"GOOD HEALTH HOSPITAL"
               }
            ],
            "id":"02020202-0202-4202-8202-020202020202"
         }
      },
      {
         "resource":{
            "resourceType":"MessageHeader",
            "source":{
               "name":"ADT1",
               "endpoint":"unknown"
            },
            "sender":{
               "reference":"Organization/01010101-0101-4101-8101-010101010101"
            },
            "destination":[
               {
                  "receiver":{
                     "reference":"Organization/02020202-0202-4202-8202-020202020202"
                  },
                  "name":"GHH LAB, INC.",
                  "endpoint":"unknown"
               }
            ],
            "meta":{
               "security":[
                  {
                     "code":"SECURITY"
                  }
               ],
               "tag":[
                  {
                     "system":"http://terminology.hl7.org/CodeSystem/v2-0103",
                     "code":"P"
                  },
                  {
                     "system":"http://terminology.hl7.org/CodeSystem/v2-0207"
                  }
               ]
            },
            "eventCoding":{
               "code":"A01",
               "display":"ADT^A01^ADT_A01",
               "system":"http://terminology.hl7.org/CodeSystem/v2-0003"
            },
            "id":"03030303-0303-4303-8303-030303030303"
         },
         "request":{
            "method":"PUT",
            "url":"MessageHeader/03030303-0303-4303-8303-030303030303"
         }
      },
      {
         "request":{
            "method":"PUT",
            "url":"Device/04040404-0404-4404-8404-040404040404"
         },
         "resource":{
            "identifier":[
               {
                  "value":"ADT1"
               }
            ],
            "id":"04040404-0404-4404-8404-040404040404",
            "resourceType":"Device"
         }
      },
      {
         "resource":{
            "recorded":"1988-08-18T11:26:00.188818Z",
            "target":[
               {
                  "reference":"MessageHeader/03030303-0303-4303-8303-030303030303"
               }
            ],
            "id":"05050505-0505-4505-8505-050505050505",
            "resourceType":"Provenance",
            "agent":[
               {
                  "who":{
                     "reference":"Device/04040404-0404-4404-8404-040404040404"
                  }
               }
            ]
         },
         "request":{
            "url":"Provenance/05050505-0505-4505-8505-050505050505",
            "method":"PUT"
         }
      },
      {
         "request":{
            "url":"Patient/06060606-0606-4606-8606-060606060606",
            "method":"PUT"
         },
         "resource":{
            "id":"06060606-0606-4606-8606-060606060606",
            "gender":"male",
            "contact":[
               {
                  "relationship":[
                     {
                        "coding":[
                           {
                              "system":"Relationship-unharmonized",
                              "code":"NK",
                              "version":"v1",
                              "display":""
                           }
                        ]
                     }
                  ],
                  "name":{
                     "given":[
                        "NELDA",
                        "W"
                     ],
                     "family":"NUCLEAR"
                  }
               }
            ],
            "address":[
               {
                  "city":"GREENSBORO",
                  "state":"NC",
                  "postalCode":"27401-1020",
                  "line":[
                     "2222 HOME STREET"
                  ]
               },
               {
                  "district":"GL"
               }
            ],
            "birthDate":"1961-06-15",
            "multipleBirthBoolean":false,
            "maritalStatus":{
               "coding":[
                  {
                     "code":"S"
                  }
               ]
            },
            "name":[
               {
                  "family":"EVERYMAN",
                  "given":[
                     "ADAM",
                     "A"
                  ],
                  "suffix":[
                     "III"
                  ]
               }
            ],
            "telecom":[
               {
                  "system":"phone",
                  "use":"home",
                  "value":"(555) 555-2004"
               },
               {
                  "system":"phone",
                  "use":"work",
                  "value":"(555)555-2004"
               }
            ],
            "active":true,
            "identifier":[
               {
                  "value":"PATID1234",
                  "type":{
                     "coding":[
                        {
                           "code":"MR"
                        }
                     ]
                  }
               },
               {
                  "type":{
                     "coding":[
                        {
                           "code":"SS"
                        }
                     ]
                  },
                  "value":"123456789"
               },
               {
                  "value":"444333333",
                  "type":{
                     "coding":[
                        {
                           "code":"SB",
                           "system":"http://terminology.hl7.org/CodeSystem/v2-0203"
                        }
                     ]
                  },
                  "system":"http://hl7.org/fhir/sid/us-ssn"
               },
               {
                  "system":"NC",
                  "value":"987654",
                  "type":{
                     "coding":[
                        {
                           "code":"DL",
                           "system":"http://terminology.hl7.org/CodeSystem/v2-0203"
                        }
                     ]
                  }
               }
            ],
            "resourceType":"Patient"
         }
      },
      {
         "resource":{
            "id":"07070707-0707-4707-8707-070707070707",
            "resourceType":"Account",
            "identifier":[
               {
                  "type":{
                     "coding":[
                        {
                           "code":"AN"
                        }
                     ]
                  },
                  "value":"PATID12345001"
               }
            ],
            "subject":[
               {
                  "reference":"Patient/06060606-0606-4606-8606-060606060606"
               }
            ],
            "status":"active"
         },
         "request":{
            "method":"PUT",
            "url":"Account/07070707-0707-4707-8707-070707070707"
         }
      },
      {
         "request":{
            "url":"RelatedPerson/08080808-0808-4808-8808-080808080808",
            "method":"PUT"
         },
         "resource":{
            "resourceType":"RelatedPerson",
            "name":[
               {
                  "given":[
                     "NELDA",
                     "W"
                  ],
                  "family":"NUCLEAR"
               }
            ],
            "relationship":[
               {
                  "coding":[
                     {
                        "code":"SPS",
                        "version":"v1",
                        "display":"spouse",
                        "system":"http://terminology.hl7.org/CodeSystem/v3-RoleCode"
                     }
                  ]
               },
               {
                  "coding":[
                     {
                        "display":"",
                        "system":"Relationship-unharmonized",
                        "code":"NK",
                        "version":"v1"
                     }
                  ]
               }
            ],
            "identifier":[
               {
                  "system":"http://hl7.org/fhir/sid/us-ssn",
                  "type":{
                     "coding":[
                        {
                           "system":"http://terminology.hl7.org/CodeSystem/v2-0203",
                           "code":"SB"
                        }
                     ]
                  }
               }
            ],
            "patient":{
               "reference":"Patient/06060606-0606-4606-8606-060606060606"
            },
            "id":"08080808-0808-4808-8808-080808080808"
         }
      },
      {
         "resource":{
            "name":"2000",
            "mode":"instance",
            "partOf":{
               "reference":"Location/0a0a0a0a-0a0a-4a0a-8a0a-0a0a0a0a0a0a"
            },
            "physicalType":{
               "coding":[
                  {
                     "code":"si",
                     "system":"http://terminology.hl7.org/CodeSystem/location-physical-type"
                  }
               ]
            },
            "id":"0c0c0c0c-0c0c-4c0c-8c0c-0c0c0c0c0c0c",
            "resourceType":"Location"
         },
         "request":{
            "method":"PUT",
            "url":"Location/0c0c0c0c-0c0c-4c0c-8c0c-0c0c0c0c0c0c"
         }
      },
      {
         "resource":{
            "resourceType":"Location",
            "partOf":{
               "reference":"Location/0c0c0c0c-0c0c-4c0c-8c0c-0c0c0c0c0c0c"
            },
            "name":"2012",
            "mode":"instance",
            "physicalType":{
               "coding":[
                  {
                     "system":"http://terminology.hl7.org/CodeSystem/location-physical-type",
                     "code":"ro"
                  }
               ]
            },
            "id":"0d0d0d0d-0d0d-4d0d-8d0d-0d0d0d0d0d0d"
         },
         "request":{
            "method":"PUT",
            "url":"Location/0d0d0d0d-0d0d-4d0d-8d0d-0d0d0d0d0d0d"
         }
      },
      {
         "request":{
            "method":"PUT",
            "url":"Location/0e0e0e0e-0e0e-4e0e-8e0e-0e0e0e0e0e0e"
         },
         "resource":{
            "name":"01",
            "partOf":{
               "reference":"Location/0d0d0d0d-0d0d-4d0d-8d0d-0d0d0d0d0d0d"
            },
            "mode":"instance",
            "physicalType":{
               "coding":[
                  {
                     "system":"http://terminology.hl7.org/CodeSystem/location-physical-type",
                     "code":"bd"
                  }
               ]
            },
            "id":"0e0e0e0e-0e0e-4e0e-8e0e-0e0e0e0e0e0e",
            "resourceType":"Location"
         }
      },
      {
         "resource":{
            "mode":"instance",
            "physicalType":{
               "coding":[
                  {
                     "code":"si",
                     "system":"http://terminology.hl7.org/CodeSystem/location-physical-type"
                  }
               ]
            },
            "id":"09090909-0909-4909-8909-090909090909",
            "resourceType":"Location"
         },
         "request":{
            "method":"PUT",
            "url":"Location/09090909-0909-4909-8909-090909090909"
         }
      },
      {
         "resource":{
            "id":"0a0a0a0a-0a0a-4a0a-8a0a-0a0a0a0a0a0a",
            "resourceType":"Location",
            "mode":"instance",
            "physicalType":{
               "coding":[
                  {
                     "code":"bu",
                     "system":"http://terminology.hl7.org/CodeSystem/location-physical-type"
                  }
               ]
            },
            "partOf":{
               "reference":"Location/09090909-0909-4909-8909-090909090909"
            }
         },
         "request":{
            "method":"PUT",
            "url":"Location/0a0a0a0a-0a0a-4a0a-8a0a-0a0a0a0a0a0a"
         }
      },
      {
         "resource":{
            "mode":"instance",
            "physicalType":{
               "coding":[
                  {
                     "system":"http://terminology.hl7.org/CodeSystem/location-physical-type",
                     "code":"lvl"
                  }
               ]
            },
            "id":"0b0b0b0b-0b0b-4b0b-8b0b-0b0b0b0b0b0b",
            "resourceType":"Location",
            "partOf":{
               "reference":"Location/0a0a0a0a-0a0a-4a0a-8a0a-0a0a0a0a0a0a"
            }
         },
         "request":{
            "method":"PUT",
            "url":"Location/0b0b0b0b-0b0b-4b0b-8b0b-0b0b0b0b0b0b"
         }
      },
      {
         "resource":{
            "name":[
               {
                  "family":"ATTEND",
                  "given":[
                     "AARON",
                     "A"
                  ]
               }
            ],
            "id":"0f0f0f0f-0f0f-4f0f-8f0f-0f0f0f0f0f0f",
            "resourceType":"Practitioner",
            "identifier":[
               {
                  "value":"004777"
               }
            ]
         },
         "request":{
            "method":"PUT",
            "url":"Practitioner/0f0f0f0f-0f0f-4f0f-8f0f-0f0f0f0f0f0f"
         }
      },
      {
         "resource":{
            "hospitalization":{
               "admitSource":{
                  "coding":[
                     {
                        "code":"ADM"
                     }
                  ]
               }
            },
            "status":"unknown",
            "identifier":[
               {
                  "type":{
                     "coding":[
                        {
                           "code":"VN",
                           "system":"http://terminology.hl7.org/CodeSystem/v2-0203"
                        }
                     ],
                     "text":"visit number"
                  }
               }
            ],
            "class":{
               "version":"v1",
               "display":"inpatient encounter",
               "system":"http://terminology.hl7.org/CodeSystem/v3-ActCode",
               "code":"IMP"
            },
            "resourceType":"Encounter",
            "participant":[
               {
                  "individual":{
                     "reference":"Practitioner/0f0f0f0f-0f0f-4f0f-8f0f-0f0f0f0f0f0f"
                  },
                  "type":[
                     {
                        "coding":[
                           {
                              "system":"http://terminology.hl7.org/CodeSystem/v3-ParticipationType",
                              "display":"attender",
                              "code":"ATND"
                           }
                        ]
                     }
                  ]
               }
            ],
            "subject":{
               "reference":"Patient/06060606-0606-4606-8606-060606060606"
            },
            "id":"10101010-1010-4010-9010-101010101010",
            "location":[
               {
                  "status":"active",
                  "location":{
                     "reference":"Location/0c0c0c0c-0c0c-4c0c-8c0c-0c0c0c0c0c0c"
                  }
               },
               {
                  "location":{
                     "reference":"Location/0d0d0d0d-0d0d-4d0d-8d0d-0d0d0d0d0d0d"
                  },
                  "status":"active"
               },
               {
                  "location":{
                     "reference":"Location/0e0e0e0e-0e0e-4e0e-8e0e-0e0e0e0e0e0e"
                  },
                  "status":"active"
               },
               {
                  "status":"active",
                  "location":{
                     "reference":"Location/09090909-0909-4909-8909-090909090909"
                  }
               },
               {
                  "status":"active",
                  "location":{
                     "reference":"Location/0a0a0a0a-0a0a-4a0a-8a0a-0a0a0a0a0a0a"
                  }
               },
               {
                  "status":"active",
                  "location":{
                     "reference":"Location/0b0b0b0b-0b0b-4b0b-8b0b-0b0b0b0b0b0b"
                  }
               }
            ]
         },
         "request":{
            "method":"PUT",
            "url":"Encounter/10101010-1010-4010-9010-101010101010"
         }
      }
   ]
}
