{
   "timestamp":"2018-07-25T14:01:56.257725Z",
   "identifier":{
      "value":"7"
   },
   "resourceType":"Bundle",
   "type":"transaction",
   "entry":[
      {
         "resource":{
            "identifier":[
               {
                  "value":"RAL"
               },
               {
                  "value":"4.2-two",
                  "type":{
                     "coding":[
                        {
                           "code":"UUID",
                           "system":"http://terminology.hl7.org/CodeSystem/v2-0301"
                        }
                     ]
                  },
                  "system":"urn:ietf:rfc:3986"
               }
            ],
            "address":[
               {
                  "country":"44"
               }
            ],
            "id":"01010101-0101-4101-8101-010101010101",
            "resourceType":"Organization"
         },
         "request":{
            "method":"PUT",
            "url":"Organization/01010101-0101-4101-8101-010101010101"
         }
      },
      {
         "request":{
            "method":"PUT",
            "url":"Organization/02020202-0202-4202-8202-020202020202"
         },
         "resource":{
            "resourceType":"Organization",
            "name":"Reciever - YIEWSLEY FAMILY PRACTICE",
            "identifier":[
               {
                  "value":"6010",
                  "type":{
                     "coding":[
                        {
                           "system":"http://terminology.hl7.org/CodeSystem/v2-0203",
                           "code":"DCode"
                        }
                     ]
                  }
               }
            ],
            "id":"02020202-0202-4202-8202-020202020202"
         }
      },
      {
         "resource":{
            "name":"Resposible - YIEWSLEY FAMILY PRACTICE",
            "identifier":[
               {
                  "value":"6010",
                  "type":{
                     "coding":[
                        {
                           "code":"RCode",
                           "system":"http://terminology.hl7.org/CodeSystem/v2-0203"
                        }
                     ]
                  }
               }
            ],
            "id":"03030303-0303-4303-8303-030303030303",
            "resourceType":"Organization"
         },
         "request":{
            "url":"Organization/03030303-0303-4303-8303-030303030303",
            "method":"PUT"
         }
      },
      {
         "resource":{
            "language":"ENG",
            "meta":{
               "tag":[
                  {
                     "code":"T",
                     "system":"http://terminology.hl7.org/CodeSystem/v2-0103"
                  },
                  {
                     "code":"11.2-processing",
                     "system":"http://terminology.hl7.org/CodeSystem/v2-0207"
                  }
               ],
               "security":[
                  {
                     "code":"8-Security"
                  }
               ]
            },
            "sender":{
               "reference":"Organization/01010101-0101-4101-8101-010101010101"
            },
            "source":{
               "name":"CERNER",
               "endpoint":"unknown"
            },
            "destination":[
               {
                  "receiver":{
                     "reference":"Organization/02020202-0202-4202-8202-020202020202"
                  },
                  "name":"STREAMS",
                  "endpoint":"unknown"
               }
            ],
            "id":"04040404-0404-4404-8404-040404040404",
            "responsible":{
               "reference":"Organization/03030303-0303-4303-8303-030303030303"
            },
            "eventCoding":{
               "system":"http://terminology.hl7.org/CodeSystem/v2-0003",
               "code":"A01",
               "display":"ADT^A01^9.3-DEF"
            },
            "resourceType":"MessageHeader"
         },
         "request":{
            "url":"MessageHeader/04040404-0404-4404-8404-040404040404",
            "method":"PUT"
         }
      },
      {
         "resource":{
            "resourceType":"Device",
            "identifier":[
               {
                  "value":"CERNER"
               }
            ],
            "id":"05050505-0505-4505-8505-050505050505"
         },
         "request":{
            "method":"PUT",
            "url":"Device/05050505-0505-4505-8505-050505050505"
         }
      },
      {
         "request":{
            "url":"Provenance/06060606-0606-4606-8606-060606060606",
            "method":"PUT"
         },
         "resource":{
            "resourceType":"Provenance",
            "agent":[
               {
                  "who":{
                     "reference":"Device/05050505-0505-4505-8505-050505050505"
                  }
               }
            ],
            "recorded":"2018-07-25T14:01:56.257725Z",
            "target":[
               {
                  "reference":"MessageHeader/04040404-0404-4404-8404-040404040404"
               }
            ],
            "id":"06060606-0606-4606-8606-060606060606"
         }
      },
      {
         "resource":{
            "id":"07070707-0707-4707-8707-070707070707",
            "resourceType":"Organization",
            "name":"YIEWSLEY FAMILY PRACTICE",
            "identifier":[
               {
                  "value":"6020",
                  "type":{
                     "coding":[
                        {
                           "system":"http://terminology.hl7.org/CodeSystem/v2-0203",
                           "code":"CLN"
                        }
                     ]
                  }
               }
            ]
         },
         "request":{
            "method":"PUT",
            "url":"Organization/07070707-0707-4707-8707-070707070707"
         }
      },
      {
         "resource":{
            "id":"08080808-0808-4808-8808-080808080808",
            "resourceType":"Practitioner",
            "identifier":[
               {
                  "value":"C184726198",
                  "type":{
                     "coding":[
                        {
                           "code":"CC"
                        }
                     ]
                  }
               }
            ],
            "name":[
               {
                  "family":"Connell",
                  "given":[
                     "Alistair",
                     "Alex"
                  ],
                  "suffix":[
                     "Sr",
                     "MD",
                     "MSc."
                  ],
                  "prefix":[
                     "Dr"
                  ],
                  "use":"official",
                  "period":{
                     "start":"2018-07-25T14:01:56+07:00",
                     "end":"2018-07-25T14:01:56+07:00"
                  }
               }
            ]
         },
         "request":{
            "url":"Practitioner/08080808-0808-4808-8808-080808080808",
            "method":"PUT"
         }
      },
      {
         "resource":{
            "telecom":[
               {
                  "system":"phone",
                  "use":"home",
                  "value":"020 0921 5742"
               },
               {
                  "system":"phone",
                  "use":"work",
                  "value":"020 0921 5748"
               },
               {
                  "value":"020 0921 5700",
                  "system":"phone",
                  "use":"home"
               }
            ],
            "generalPractitioner":[
               {
                  "reference":"Organization/07070707-0707-4707-8707-070707070707"
               },
               {
                  "reference":"Practitioner/08080808-0808-4808-8808-080808080808"
               }
            ],
            "multipleBirthInteger":2,
            "gender":"female",
            "address":[
               {
                  "country":"GBR",
                  "period":{
                     "start":"2018-07-25T14:01:56+07:00",
                     "end":"2018-07-25T14:01:56+07:00"
                  },
                  "line":[
                     "25 Dahlia House",
                     "Plough Avenue",
                     "Some Guy"
                  ],
                  "city":"Croydon",
                  "state":"N/A",
                  "postalCode":"SV20 3BC"
               }
            ],
            "birthDate":"1994-06-15",
            "deceasedDateTime":"2018-07-25T14:01:56+07:00",
            "id":"09090909-0909-4909-8909-090909090909",
            "resourceType":"Patient",
            "name":[
               {
                  "given":[
                     "Jane",
                     "Janny"
                  ],
                  "suffix":[
                     "Jr",
                     "PhD",
                     "Eng."
                  ],
                  "prefix":[
                     "Miss"
                  ],
                  "use":"anonymous",
                  "period":{
                     "end":"2018-07-25T14:01:56+07:00",
                     "start":"2018-07-25T14:01:56+07:00"
                  },
                  "family":"Doe"
               },
               {
                  "prefix":[
                     "Al-Miss"
                  ],
                  "use":"anonymous",
                  "period":{
                     "end":"2018-07-25T14:01:56+07:00",
                     "start":"2018-07-25T14:01:56+07:00"
                  },
                  "family":"Al-Doe",
                  "given":[
                     "Al-Jane",
                     "Al-Janny"
                  ],
                  "suffix":[
                     "Al-Jr",
                     "Al-PhD",
                     "Al-Eng."
                  ]
               }
            ],
            "active":true,
            "maritalStatus":{
               "coding":[
                  {
                     "code":"MARRIED"
                  }
               ]
            },
            "meta":{
               "lastUpdated":"2018-07-25T14:01:56+07:00"
            },
            "identifier":[
               {
                  "type":{
                     "coding":[
                        {
                           "code":"MRN"
                        }
                     ]
                  },
                  "value":"1419055458"
               },
               {
                  "value":"1419055458",
                  "type":{
                     "coding":[
                        {
                           "code":"MRN"
                        }
                     ]
                  }
               },
               {
                  "value":"3870146052",
                  "type":{
                     "coding":[
                        {
                           "code":"NHSNMBR"
                        }
                     ]
                  }
               },
               {
                  "type":{
                     "coding":[
                        {
                           "code":"MRN4"
                        }
                     ]
                  },
                  "value":"1419055459"
               },
               {
                  "value":"SSN-48383",
                  "type":{
                     "coding":[
                        {
                           "code":"SB",
                           "system":"http://terminology.hl7.org/CodeSystem/v2-0203"
                        }
                     ]
                  },
                  "system":"http://hl7.org/fhir/sid/us-ssn"
               },
               {
                  "type":{
                     "coding":[
                        {
                           "system":"http://terminology.hl7.org/CodeSystem/v2-0203",
                           "code":"DL"
                        }
                     ]
                  },
                  "value":"43211234"
               }
            ]
         },
         "request":{
            "method":"PUT",
            "url":"Patient/09090909-0909-4909-8909-090909090909"
         }
      },
      {
         "resource":{
            "subject":[
               {
                  "reference":"Patient/09090909-0909-4909-8909-090909090909"
               }
            ],
            "status":"active",
            "id":"0a0a0a0a-0a0a-4a0a-8a0a-0a0a0a0a0a0a",
            "resourceType":"Account",
            "identifier":[
               {
                  "value":"1419055678"
               }
            ]
         },
         "request":{
            "url":"Account/0a0a0a0a-0a0a-4a0a-8a0a-0a0a0a0a0a0a",
            "method":"PUT"
         }
      },
      {
         "resource":{
            "name":[
               {
                  "given":[
                     "J"
                  ],
                  "prefix":[
                     "Dr"
                  ],
                  "use":"anonymous",
                  "family":"Prout"
               }
            ],
            "id":"0b0b0b0b-0b0b-4b0b-8b0b-0b0b0b0b0b0b",
            "resourceType":"Practitioner",
            "identifier":[
               {
                  "type":{
                     "coding":[
                        {
                           "code":"ORGDR"
                        }
                     ]
                  },
                  "value":"C3557206"
               }
            ]
         },
         "request":{
            "method":"PUT",
            "url":"Practitioner/0b0b0b0b-0b0b-4b0b-8b0b-0b0b0b0b0b0b"
         }
      },
      {
         "resource":{
            "name":[
               {
                  "prefix":[
                     "Dr"
                  ],
                  "use":"anonymous",
                  "family":"Prout",
                  "given":[
                     "J"
                  ]
               }
            ],
            "id":"0d0d0d0d-0d0d-4d0d-8d0d-0d0d0d0d0d0d",
            "resourceType":"Practitioner",
            "identifier":[
               {
                  "type":{
                     "coding":[
                        {
                           "code":"ORGDR"
                        }
                     ]
                  },
                  "value":"C3557206"
               }
            ]
         },
         "request":{
            "method":"PUT",
            "url":"Practitioner/0d0d0d0d-0d0d-4d0d-8d0d-0d0d0d0d0d0d"
         }
      },
      {
         "request":{
            "method":"PUT",
            "url":"Condition/0c0c0c0c-0c0c-4c0c-8c0c-0c0c0c0c0c0c"
         },
         "resource":{
            "asserter":{
               "reference":"Practitioner/0b0b0b0b-0b0b-4b0b-8b0b-0b0b0b0b0b0b"
            },
            "code":{
               "coding":[
                  {
                     "code":"R07.1",
                     "display":"Chest pain on breathing"
                  }
               ],
               "text":"Chest pain on breathing"
            },
            "resourceType":"Condition",
            "verificationStatus":{
               "coding":[
                  {
                     "system":"http://terminology.hl7.org/CodeSystem/condition-ver-status",
                     "code":"entered-in-error"
                  }
               ]
            },
            "identifier":[
               {
                  "value":"EI29202"
               }
            ],
            "id":"0c0c0c0c-0c0c-4c0c-8c0c-0c0c0c0c0c0c",
            "onsetDateTime":"2019-03-09T14:01:56+03:00",
            "subject":{
               "reference":"Patient/09090909-0909-4909-8909-090909090909"
            },
            "recordedDate":"2020-03-09T14:01:56+03:00"
         }
      },
      {
         "resource":{
            "subject":{
               "reference":"Patient/09090909-0909-4909-8909-090909090909"
            },
            "recordedDate":"2019-03-09T14:01:56+03:00",
            "asserter":{
               "reference":"Practitioner/0d0d0d0d-0d0d-4d0d-8d0d-0d0d0d0d0d0d"
            },
            "onsetDateTime":"2019-03-09T14:01:56+03:00",
            "resourceType":"Condition",
            "verificationStatus":{
               "coding":[
                  {
                     "system":"http://terminology.hl7.org/CodeSystem/condition-ver-status",
                     "code":"entered-in-error"
                  }
               ]
            },
            "id":"0e0e0e0e-0e0e-4e0e-8e0e-0e0e0e0e0e0e",
            "code":{
               "text":"Chest pain on breathing2",
               "coding":[
                  {
                     "display":"Chest pain on breathing2",
                     "code":"R07.2"
                  }
               ]
            },
            "identifier":[
               {
                  "value":"EI29204"
               }
            ]
         },
         "request":{
            "method":"PUT",
            "url":"Condition/0e0e0e0e-0e0e-4e0e-8e0e-0e0e0e0e0e0e"
         }
      },
      {
         "resource":{
            "resourceType":"Location",
            "name":"Orthopaedic",
            "partOf":{
               "reference":"Location/10101010-1010-4010-9010-101010101010"
            },
            "mode":"instance",
            "physicalType":{
               "coding":[
                  {
                     "code":"si",
                     "system":"http://terminology.hl7.org/CodeSystem/location-physical-type"
                  }
               ]
            },
            "id":"12121212-1212-4212-9212-121212121212"
         },
         "request":{
            "method":"PUT",
            "url":"Location/12121212-1212-4212-9212-121212121212"
         }
      },
      {
         "resource":{
            "mode":"instance",
            "physicalType":{
               "coding":[
                  {
                     "system":"http://terminology.hl7.org/CodeSystem/location-physical-type",
                     "code":"ro"
                  }
               ]
            },
            "id":"13131313-1313-4313-9313-131313131313",
            "partOf":{
               "reference":"Location/12121212-1212-4212-9212-121212121212"
            },
            "resourceType":"Location",
            "name":"Bay A"
         },
         "request":{
            "method":"PUT",
            "url":"Location/13131313-1313-4313-9313-131313131313"
         }
      },
      {
         "resource":{
            "name":"Bed 1",
            "mode":"instance",
            "physicalType":{
               "coding":[
                  {
                     "code":"bd",
                     "system":"http://terminology.hl7.org/CodeSystem/location-physical-type"
                  }
               ]
            },
            "partOf":{
               "reference":"Location/13131313-1313-4313-9313-131313131313"
            },
            "id":"14141414-1414-4414-9414-141414141414",
            "resourceType":"Location"
         },
         "request":{
            "url":"Location/14141414-1414-4414-9414-141414141414",
            "method":"PUT"
         }
      },
      {
         "request":{
            "url":"Location/0f0f0f0f-0f0f-4f0f-8f0f-0f0f0f0f0f0f",
            "method":"PUT"
         },
         "resource":{
            "resourceType":"Location",
            "name":"Simulated Hospital",
            "mode":"instance",
            "physicalType":{
               "coding":[
                  {
                     "code":"si",
                     "system":"http://terminology.hl7.org/CodeSystem/location-physical-type"
                  }
               ]
            },
            "id":"0f0f0f0f-0f0f-4f0f-8f0f-0f0f0f0f0f0f"
         }
      },
      {
         "resource":{
            "physicalType":{
               "coding":[
                  {
                     "code":"bu",
                     "system":"http://terminology.hl7.org/CodeSystem/location-physical-type"
                  }
               ]
            },
            "id":"10101010-1010-4010-9010-101010101010",
            "resourceType":"Location",
            "name":"Orthopaedic ward",
            "partOf":{
               "reference":"Location/0f0f0f0f-0f0f-4f0f-8f0f-0f0f0f0f0f0f"
            },
            "mode":"instance"
         },
         "request":{
            "method":"PUT",
            "url":"Location/10101010-1010-4010-9010-101010101010"
         }
      },
      {
         "resource":{
            "id":"11111111-1111-4111-9111-111111111111",
            "resourceType":"Location",
            "name":"1",
            "mode":"instance",
            "partOf":{
               "reference":"Location/10101010-1010-4010-9010-101010101010"
            },
            "physicalType":{
               "coding":[
                  {
                     "code":"lvl",
                     "system":"http://terminology.hl7.org/CodeSystem/location-physical-type"
                  }
               ]
            }
         },
         "request":{
            "method":"PUT",
            "url":"Location/11111111-1111-4111-9111-111111111111"
         }
      },
      {
         "resource":{
            "id":"18181818-1818-4818-9818-181818181818",
            "resourceType":"Location",
            "name":"PV1-6-Orthopaedic",
            "partOf":{
               "reference":"Location/16161616-1616-4616-9616-161616161616"
            },
            "mode":"instance",
            "physicalType":{
               "coding":[
                  {
                     "code":"si",
                     "system":"http://terminology.hl7.org/CodeSystem/location-physical-type"
                  }
               ]
            }
         },
         "request":{
            "method":"PUT",
            "url":"Location/18181818-1818-4818-9818-181818181818"
         }
      },
      {
         "resource":{
            "physicalType":{
               "coding":[
                  {
                     "code":"ro",
                     "system":"http://terminology.hl7.org/CodeSystem/location-physical-type"
                  }
               ]
            },
            "partOf":{
               "reference":"Location/18181818-1818-4818-9818-181818181818"
            },
            "id":"19191919-1919-4919-9919-191919191919",
            "resourceType":"Location",
            "name":"PV1-6-Bay A",
            "mode":"instance"
         },
         "request":{
            "method":"PUT",
            "url":"Location/19191919-1919-4919-9919-191919191919"
         }
      },
      {
         "request":{
            "method":"PUT",
            "url":"Location/1a1a1a1a-1a1a-4a1a-9a1a-1a1a1a1a1a1a"
         },
         "resource":{
            "physicalType":{
               "coding":[
                  {
                     "code":"bd",
                     "system":"http://terminology.hl7.org/CodeSystem/location-physical-type"
                  }
               ]
            },
            "id":"1a1a1a1a-1a1a-4a1a-9a1a-1a1a1a1a1a1a",
            "resourceType":"Location",
            "partOf":{
               "reference":"Location/19191919-1919-4919-9919-191919191919"
            },
            "name":"PV1-6-Bed 1",
            "mode":"instance"
         }
      },
      {
         "request":{
            "method":"PUT",
            "url":"Location/15151515-1515-4515-9515-151515151515"
         },
         "resource":{
            "physicalType":{
               "coding":[
                  {
                     "system":"http://terminology.hl7.org/CodeSystem/location-physical-type",
                     "code":"si"
                  }
               ]
            },
            "id":"15151515-1515-4515-9515-151515151515",
            "resourceType":"Location",
            "name":"PV1-6-Simulated Hospital",
            "mode":"instance"
         }
      },
      {
         "resource":{
            "id":"16161616-1616-4616-9616-161616161616",
            "resourceType":"Location",
            "partOf":{
               "reference":"Location/15151515-1515-4515-9515-151515151515"
            },
            "name":"PV1-6-Orthopaedic ward",
            "mode":"instance",
            "physicalType":{
               "coding":[
                  {
                     "system":"http://terminology.hl7.org/CodeSystem/location-physical-type",
                     "code":"bu"
                  }
               ]
            }
         },
         "request":{
            "method":"PUT",
            "url":"Location/16161616-1616-4616-9616-161616161616"
         }
      },
      {
         "resource":{
            "resourceType":"Location",
            "name":"PV1-6-0",
            "mode":"instance",
            "physicalType":{
               "coding":[
                  {
                     "system":"http://terminology.hl7.org/CodeSystem/location-physical-type",
                     "code":"lvl"
                  }
               ]
            },
            "partOf":{
               "reference":"Location/16161616-1616-4616-9616-161616161616"
            },
            "id":"17171717-1717-4717-9717-171717171717"
         },
         "request":{
            "method":"PUT",
            "url":"Location/17171717-1717-4717-9717-171717171717"
         }
      },
      {
         "resource":{
            "identifier":[
               {
                  "value":"C184726198",
                  "type":{
                     "coding":[
                        {
                           "code":"CC"
                        }
                     ]
                  }
               }
            ],
            "name":[
               {
                  "given":[
                     "Alistair",
                     "Alex"
                  ],
                  "suffix":[
                     "Sr",
                     "MD",
                     "MSc."
                  ],
                  "prefix":[
                     "Dr"
                  ],
                  "use":"official",
                  "period":{
                     "end":"2018-07-25T14:01:56+07:00",
                     "start":"2018-07-25T14:01:56+07:00"
                  },
                  "family":"Connell"
               }
            ],
            "id":"1b1b1b1b-1b1b-4b1b-9b1b-1b1b1b1b1b1b",
            "resourceType":"Practitioner"
         },
         "request":{
            "url":"Practitioner/1b1b1b1b-1b1b-4b1b-9b1b-1b1b1b1b1b1b",
            "method":"PUT"
         }
      },
      {
         "resource":{
            "identifier":[
               {
                  "type":{
                     "coding":[
                        {
                           "code":"CC"
                        }
                     ]
                  },
                  "value":"C184726198"
               }
            ],
            "name":[
               {
                  "use":"official",
                  "period":{
                     "end":"2018-07-25T14:01:56+07:00",
                     "start":"2018-07-25T14:01:56+07:00"
                  },
                  "family":"Connell",
                  "given":[
                     "Alistair",
                     "Alex"
                  ],
                  "suffix":[
                     "Sr",
                     "MD",
                     "MSc."
                  ],
                  "prefix":[
                     "Dr"
                  ]
               }
            ],
            "id":"1c1c1c1c-1c1c-4c1c-9c1c-1c1c1c1c1c1c",
            "resourceType":"Practitioner"
         },
         "request":{
            "method":"PUT",
            "url":"Practitioner/1c1c1c1c-1c1c-4c1c-9c1c-1c1c1c1c1c1c"
         }
      },
      {
         "request":{
            "method":"PUT",
            "url":"Practitioner/1d1d1d1d-1d1d-4d1d-9d1d-1d1d1d1d1d1d"
         },
         "resource":{
            "resourceType":"Practitioner",
            "identifier":[
               {
                  "value":"C184726198",
                  "type":{
                     "coding":[
                        {
                           "code":"CC"
                        }
                     ]
                  }
               }
            ],
            "name":[
               {
                  "use":"official",
                  "period":{
                     "start":"2018-07-25T14:01:56+07:00",
                     "end":"2018-07-25T14:01:56+07:00"
                  },
                  "family":"Connell",
                  "given":[
                     "Alistair",
                     "Alex"
                  ],
                  "suffix":[
                     "Sr",
                     "MD",
                     "MSc."
                  ],
                  "prefix":[
                     "Dr"
                  ]
               }
            ],
            "id":"1d1d1d1d-1d1d-4d1d-9d1d-1d1d1d1d1d1d"
         }
      },
      {
         "resource":{
            "resourceType":"Practitioner",
            "identifier":[
               {
                  "type":{
                     "coding":[
                        {
                           "code":"CC"
                        }
                     ]
                  },
                  "value":"C184726198"
               }
            ],
            "name":[
               {
                  "family":"Connell",
                  "given":[
                     "Alistair",
                     "Alex"
                  ],
                  "suffix":[
                     "Sr",
                     "MD",
                     "MSc."
                  ],
                  "prefix":[
                     "Dr"
                  ],
                  "use":"official",
                  "period":{
                     "end":"2018-07-25T14:01:56+07:00",
                     "start":"2018-07-25T14:01:56+07:00"
                  }
               }
            ],
            "id":"1e1e1e1e-1e1e-4e1e-9e1e-1e1e1e1e1e1e"
         },
         "request":{
            "url":"Practitioner/1e1e1e1e-1e1e-4e1e-9e1e-1e1e1e1e1e1e",
            "method":"PUT"
         }
      },
      {
         "resource":{
            "id":"1f1f1f1f-1f1f-4f1f-9f1f-1f1f1f1f1f1f",
            "resourceType":"Location",
            "identifier":[
               {
                  "value":"New Home"
               }
            ]
         },
         "request":{
            "method":"PUT",
            "url":"Location/1f1f1f1f-1f1f-4f1f-9f1f-1f1f1f1f1f1f"
         }
      },
      {
         "resource":{
            "id":"20202020-2020-4020-a020-202020202020",
            "resourceType":"Practitioner",
            "identifier":[
               {
                  "type":{
                     "coding":[
                        {
                           "code":"CC"
                        }
                     ]
                  },
                  "value":"C184726198"
               }
            ],
            "name":[
               {
                  "suffix":[
                     "Sr",
                     "MD",
                     "MSc."
                  ],
                  "prefix":[
                     "Dr"
                  ],
                  "use":"official",
                  "period":{
                     "end":"2018-07-25T14:01:56+07:00",
                     "start":"2018-07-25T14:01:56+07:00"
                  },
                  "family":"Connell",
                  "given":[
                     "Alistair",
                     "Alex"
                  ]
               }
            ]
         },
         "request":{
            "method":"PUT",
            "url":"Practitioner/20202020-2020-4020-a020-202020202020"
         }
      },
      {
         "request":{
            "method":"PUT",
            "url":"EpisodeOfCare/21212121-2121-4121-a121-212121212121"
         },
         "resource":{
            "identifier":[
               {
                  "value":"5609582645793883000",
                  "type":{
                     "coding":[
                        {
                           "code":"visitid"
                        }
                     ]
                  },
                  "period":{
                     "end":"2018-07-25T14:01:56+07:00",
                     "start":"2018-07-25T14:01:56+07:00"
                  }
               }
            ],
            "status":"finished",
            "diagnosis":[
               {
                  "role":{
                     "coding":[
                        {
                           "code":"Working"
                        }
                     ]
                  },
                  "condition":{
                     "reference":"Condition/0c0c0c0c-0c0c-4c0c-8c0c-0c0c0c0c0c0c"
                  }
               },
               {
                  "condition":{
                     "reference":"Condition/0e0e0e0e-0e0e-4e0e-8e0e-0e0e0e0e0e0e"
                  },
                  "role":{
                     "coding":[
                        {
                           "code":"Working2"
                        }
                     ]
                  }
               }
            ],
            "patient":{
               "reference":"Patient/09090909-0909-4909-8909-090909090909"
            },
            "id":"21212121-2121-4121-a121-212121212121",
            "resourceType":"EpisodeOfCare"
         }
      },
      {
         "request":{
            "method":"PUT",
            "url":"Encounter/22222222-2222-4222-a222-222222222222"
         },
         "resource":{
            "status":"finished",
            "diagnosis":[
               {
                  "condition":{
                     "reference":"Condition/0c0c0c0c-0c0c-4c0c-8c0c-0c0c0c0c0c0c"
                  }
               },
               {
                  "condition":{
                     "reference":"Condition/0e0e0e0e-0e0e-4e0e-8e0e-0e0e0e0e0e0e"
                  }
               }
            ],
            "location":[
               {
                  "location":{
                     "reference":"Location/12121212-1212-4212-9212-121212121212"
                  },
                  "status":"active"
               },
               {
                  "status":"active",
                  "location":{
                     "reference":"Location/13131313-1313-4313-9313-131313131313"
                  }
               },
               {
                  "status":"active",
                  "location":{
                     "reference":"Location/14141414-1414-4414-9414-141414141414"
                  }
               },
               {
                  "status":"active",
                  "location":{
                     "reference":"Location/0f0f0f0f-0f0f-4f0f-8f0f-0f0f0f0f0f0f"
                  }
               },
               {
                  "status":"active",
                  "location":{
                     "reference":"Location/10101010-1010-4010-9010-101010101010"
                  }
               },
               {
                  "status":"active",
                  "location":{
                     "reference":"Location/11111111-1111-4111-9111-111111111111"
                  }
               },
               {
                  "status":"completed",
                  "location":{
                     "reference":"Location/18181818-1818-4818-9818-181818181818"
                  }
               },
               {
                  "location":{
                     "reference":"Location/19191919-1919-4919-9919-191919191919"
                  },
                  "status":"completed"
               },
               {
                  "status":"completed",
                  "location":{
                     "reference":"Location/1a1a1a1a-1a1a-4a1a-9a1a-1a1a1a1a1a1a"
                  }
               },
               {
                  "status":"completed",
                  "location":{
                     "reference":"Location/15151515-1515-4515-9515-151515151515"
                  }
               },
               {
                  "status":"completed",
                  "location":{
                     "reference":"Location/16161616-1616-4616-9616-161616161616"
                  }
               },
               {
                  "status":"completed",
                  "location":{
                     "reference":"Location/17171717-1717-4717-9717-171717171717"
                  }
               }
            ],
            "subject":{
               "reference":"Patient/09090909-0909-4909-8909-090909090909"
            },
            "period":{
               "end":"2011-03-09T13:01:56+03:00",
               "start":"2009-03-09T13:01:56+03:00"
            },
            "identifier":[
               {
                  "type":{
                     "coding":[
                        {
                           "system":"http://terminology.hl7.org/CodeSystem/v2-0203",
                           "code":"visitid"
                        }
                     ],
                     "text":"visit number"
                  },
                  "period":{
                     "start":"2018-07-25T14:01:56+07:00",
                     "end":"2018-07-25T14:01:56+07:00"
                  },
                  "value":"5609582645793881888"
               },
               {
                  "period":{
                     "start":"2018-07-25T14:01:56+07:00",
                     "end":"2018-07-25T14:01:56+07:00"
                  },
                  "value":"5609582645793882000",
                  "type":{
                     "coding":[
                        {
                           "code":"visitid"
                        }
                     ]
                  }
               }
            ],
            "episodeOfCare":[
               {
                  "reference":"EpisodeOfCare/21212121-2121-4121-a121-212121212121"
               }
            ],
            "type":[
               {
                  "coding":[
                     {
                        "code":"28b"
                     }
                  ]
               }
            ],
            "class":{
               "version":"v1",
               "display":"",
               "system":"Encounter_Class-unharmonized",
               "code":"INPATIENT"
            },
            "resourceType":"Encounter",
            "participant":[
               {
                  "individual":{
                     "reference":"Practitioner/1b1b1b1b-1b1b-4b1b-9b1b-1b1b1b1b1b1b"
                  },
                  "type":[
                     {
                        "coding":[
                           {
                              "system":"http://terminology.hl7.org/CodeSystem/v3-ParticipationType",
                              "display":"attender",
                              "code":"ATND"
                           }
                        ]
                     }
                  ]
               },
               {
                  "type":[
                     {
                        "coding":[
                           {
                              "display":"referrer",
                              "code":"REF",
                              "system":"http://terminology.hl7.org/CodeSystem/v3-ParticipationType"
                           }
                        ]
                     }
                  ],
                  "individual":{
                     "reference":"Practitioner/1c1c1c1c-1c1c-4c1c-9c1c-1c1c1c1c1c1c"
                  }
               },
               {
                  "type":[
                     {
                        "coding":[
                           {
                              "display":"consultant",
                              "code":"CON",
                              "system":"http://terminology.hl7.org/CodeSystem/v3-ParticipationType"
                           }
                        ]
                     }
                  ],
                  "individual":{
                     "reference":"Practitioner/1d1d1d1d-1d1d-4d1d-9d1d-1d1d1d1d1d1d"
                  }
               },
               {
                  "individual":{
                     "reference":"Practitioner/1e1e1e1e-1e1e-4e1e-9e1e-1e1e1e1e1e1e"
                  },
                  "type":[
                     {
                        "coding":[
                           {
                              "display":"admitter",
                              "code":"ADM",
                              "system":"http://terminology.hl7.org/CodeSystem/v3-ParticipationType"
                           }
                        ]
                     }
                  ]
               },
               {
                  "individual":{
                     "reference":"Practitioner/20202020-2020-4020-a020-202020202020"
                  },
                  "type":[
                     {
                        "coding":[
                           {
                              "display":"Participation",
                              "code":"PART",
                              "system":"http://terminology.hl7.org/CodeSystem/v3-ParticipationType"
                           }
                        ]
                     }
                  ]
               }
            ],
            "id":"22222222-2222-4222-a222-222222222222",
            "hospitalization":{
               "preAdmissionIdentifier":{
                  "value":"PV1-5"
               },
               "reAdmission":{
                  "coding":[
                     {
                        "code":"PV1.13"
                     }
                  ]
               },
               "admitSource":{
                  "coding":[
                     {
                        "code":"PV1.14"
                     }
                  ]
               },
               "dischargeDisposition":{
                  "coding":[
                     {
                        "code":"Ready to go"
                     }
                  ]
               },
               "destination":{
                  "reference":"Location/1f1f1f1f-1f1f-4f1f-9f1f-1f1f1f1f1f1f"
               },
               "dietPreference":[
                  {
                     "coding":[
                        {
                           "code":"Vegi"
                        }
                     ]
                  }
               ]
            }
         }
      },
      {
         "resource":{
            "resourceType":"AllergyIntolerance",
            "category":[
               "environment"
            ],
            "type":"allergy",
            "code":{
               "coding":[
                  {
                     "display":"Personal history of allergy to penicillin",
                     "system":"ZAL",
                     "code":"Z88.0"
                  }
               ]
            },
            "clinicalStatus":{
               "coding":[
                  {
                     "code":"active",
                     "system":"http://terminology.hl7.org/CodeSystem/allergyintolerance-clinical"
                  }
               ]
            },
            "reaction":[
               {
                  "severity":"SEVERE",
                  "manifestation":[
                     {
                        "text":"Place Holder"
                     }
                  ]
               }
            ],
            "patient":{
               "reference":"Patient/09090909-0909-4909-8909-090909090909"
            },
            "id":"23232323-2323-4323-a323-232323232323"
         },
         "request":{
            "method":"PUT",
            "url":"AllergyIntolerance/23232323-2323-4323-a323-232323232323"
         }
      },
      {
         "resource":{
            "resourceType":"AllergyIntolerance",
            "category":[
               "environment"
            ],
            "type":"allergy",
            "code":{
               "coding":[
                  {
                     "system":"ZAL",
                     "code":"T63.441A",
                     "display":"Toxic effect of venom of bees"
                  }
               ]
            },
            "clinicalStatus":{
               "coding":[
                  {
                     "code":"active",
                     "system":"http://terminology.hl7.org/CodeSystem/allergyintolerance-clinical"
                  }
               ]
            },
            "reaction":[
               {
                  "manifestation":[
                     {
                        "text":"Place Holder"
                     }
                  ],
                  "severity":"MODERATE"
               }
            ],
            "patient":{
               "reference":"Patient/09090909-0909-4909-8909-090909090909"
            },
            "id":"24242424-2424-4424-a424-242424242424"
         },
         "request":{
            "url":"AllergyIntolerance/24242424-2424-4424-a424-242424242424",
            "method":"PUT"
         }
      },
      {
         "resource":{
            "patient":{
               "reference":"Patient/09090909-0909-4909-8909-090909090909"
            },
            "id":"25252525-2525-4525-a525-252525252525",
            "resourceType":"AllergyIntolerance",
            "category":[
               "environment"
            ],
            "type":"allergy",
            "code":{
               "coding":[
                  {
                     "system":"ZAL",
                     "code":"Z91.013",
                     "display":"Personal history of allergy to sea food"
                  }
               ]
            },
            "clinicalStatus":{
               "coding":[
                  {
                     "system":"http://terminology.hl7.org/CodeSystem/allergyintolerance-clinical",
                     "code":"active"
                  }
               ]
            },
            "reaction":[
               {
                  "severity":"SEVERE",
                  "manifestation":[
                     {
                        "text":"Place Holder"
                     }
                  ]
               }
            ]
         },
         "request":{
            "method":"PUT",
            "url":"AllergyIntolerance/25252525-2525-4525-a525-252525252525"
         }
      },
      {
         "resource":{
            "patient":{
               "reference":"Patient/09090909-0909-4909-8909-090909090909"
            },
            "id":"26262626-2626-4626-a626-262626262626",
            "resourceType":"AllergyIntolerance",
            "category":[
               "environment"
            ],
            "type":"allergy",
            "code":{
               "coding":[
                  {
                     "code":"Z91.040",
                     "display":"Latex allergy",
                     "system":"ZAL"
                  }
               ]
            },
            "clinicalStatus":{
               "coding":[
                  {
                     "system":"http://terminology.hl7.org/CodeSystem/allergyintolerance-clinical",
                     "code":"active"
                  }
               ]
            },
            "reaction":[
               {
                  "severity":"MODERATE",
                  "manifestation":[
                     {
                        "text":"Place Holder"
                     }
                  ]
               }
            ]
         },
         "request":{
            "url":"AllergyIntolerance/26262626-2626-4626-a626-262626262626",
            "method":"PUT"
         }
      },
      {
         "resource":{
            "effectiveDateTime":"2019-03-11T14:25:58+03:00",
            "subject":{
               "reference":"Patient/09090909-0909-4909-8909-090909090909"
            },
            "id":"27272727-2727-4727-a727-272727272727",
            "resourceType":"Observation",
            "code":{
               "coding":[
                  {
                     "system":"WinPath",
                     "code":"7475632",
                     "display":"XCHES"
                  }
               ]
            },
            "valueString":"1. Clear both lung fields and costophrenic angles. Normal cardiac size and shape",
            "status":"final"
         },
         "request":{
            "method":"PUT",
            "url":"Observation/27272727-2727-4727-a727-272727272727"
         }
      },
      {
         "resource":{
            "code":{
               "coding":[
                  {
                     "system":"WinPath",
                     "code":"7475632",
                     "display":"XCHES"
                  }
               ]
            },
            "valueString":"2. Clear both lung fields and costophrenic angles. Normal cardiac size and shape",
            "status":"final",
            "effectiveDateTime":"2019-03-11T14:25:58+03:00",
            "subject":{
               "reference":"Patient/09090909-0909-4909-8909-090909090909"
            },
            "id":"28282828-2828-4828-a828-282828282828",
            "resourceType":"Observation"
         },
         "request":{
            "method":"PUT",
            "url":"Observation/28282828-2828-4828-a828-282828282828"
         }
      }
   ]
}
