{
   "resourceType":"Bundle",
   "type":"transaction",
   "entry":[
      {
         "request":{
            "url":"Organization/01010101-0101-4101-8101-010101010101",
            "method":"PUT"
         },
         "resource":{
            "resourceType":"Organization",
            "identifier":[
               {
                  "value":"NIST EHR Facility"
               }
            ],
            "id":"01010101-0101-4101-8101-010101010101"
         }
      },
      {
         "resource":{
            "resourceType":"Organization",
            "identifier":[
               {
                  "value":"NIST Lab Facility"
               }
            ],
            "id":"02020202-0202-4202-8202-020202020202"
         },
         "request":{
            "url":"Organization/02020202-0202-4202-8202-020202020202",
            "method":"PUT"
         }
      },
      {
         "resource":{
            "meta":{
               "tag":[
                  {
                     "system":"http://terminology.hl7.org/CodeSystem/v2-0103",
                     "code":"T"
                  },
                  {
                     "system":"http://terminology.hl7.org/CodeSystem/v2-0207"
                  }
               ]
            },
            "id":"03030303-0303-4303-8303-030303030303",
            "resourceType":"MessageHeader",
            "source":{
               "name":"NIST EHR",
               "endpoint":"unknown"
            },
            "sender":{
               "reference":"Organization/01010101-0101-4101-8101-010101010101"
            },
            "destination":[
               {
                  "endpoint":"NIST Lab Facility",
                  "name":"NIST Test Lab APP",
                  "receiver":{
                     "reference":"Organization/02020202-0202-4202-8202-020202020202"
                  }
               }
            ],
            "eventCoding":{
               "code":"O21",
               "system":"http://terminology.hl7.org/CodeSystem/v2-0003"
            }
         },
         "request":{
            "url":"MessageHeader/03030303-0303-4303-8303-030303030303",
            "method":"PUT"
         }
      },
      {
         "resource":{
            "resourceType":"Device",
            "identifier":[
               {
                  "value":"NIST EHR"
               }
            ],
            "id":"04040404-0404-4404-8404-040404040404"
         },
         "request":{
            "url":"Device/04040404-0404-4404-8404-040404040404",
            "method":"PUT"
         }
      },
      {
         "resource":{
            "target":[
               {
                  "reference":"MessageHeader/03030303-0303-4303-8303-030303030303"
               }
            ],
            "id":"05050505-0505-4505-8505-050505050505",
            "resourceType":"Provenance",
            "agent":[
               {
                  "who":{
                     "reference":"Device/04040404-0404-4404-8404-040404040404"
                  }
               }
            ],
            "recorded":"2005-02-11T18:41:01.112211Z"
         },
         "request":{
            "method":"PUT",
            "url":"Provenance/05050505-0505-4505-8505-050505050505"
         }
      },
      {
         "resource":{
            "resourceType":"Patient",
            "identifier":[
               {
                  "type":{
                     "coding":[
                        {
                           "code":"MR"
                        }
                     ]
                  },
                  "value":"PATID5421"
               },
               {
                  "type":{
                     "coding":[
                        {
                           "code":"SB"
                        }
                     ]
                  }
               },
               {
                  "type":{
                     "coding":[
                        {
                           "code":"DL"
                        }
                     ]
                  }
               }
            ],
            "name":[
               {
                  "given":[
                     "Patrice",
                     "Natasha"
                  ],
                  "use":"official",
                  "family":"Wilson"
               }
            ],
            "birthDate":"1982-03-04",
            "gender":"female",
            "address":[
               {
                  "city":"Los Angeles",
                  "state":"CA",
                  "postalCode":"90012",
                  "use":"home",
                  "line":[
                     "144 East 12th Street"
                  ]
               }
            ],
            "active":true,
            "id":"06060606-0606-4606-8606-060606060606"
         },
         "request":{
            "url":"Patient/06060606-0606-4606-8606-060606060606",
            "method":"PUT"
         }
      },
      {
         "request":{
            "method":"PUT",
            "url":"Specimen/07070707-0707-4707-8707-070707070707"
         },
         "resource":{
            "resourceType":"Specimen",
            "subject":{
               "reference":"Patient/06060606-0606-4606-8606-060606060606"
            },
            "id":"07070707-0707-4707-8707-070707070707"
         }
      },
      {
         "resource":{
            "id":"08080808-0808-4808-8808-080808080808",
            "resourceType":"DiagnosticReport",
            "identifier":[
               {
                  "value":"ORD448811",
                  "type":{
                     "coding":[
                        {
                           "system":"http://terminology.hl7.org/CodeSystem/v2-0203",
                           "code":"PLAC"
                        }
                     ]
                  }
               },
               {
                  "value":"ORD448811",
                  "type":{
                     "coding":[
                        {
                           "code":"PLAC",
                           "system":"http://terminology.hl7.org/CodeSystem/v2-0203"
                        }
                     ]
                  }
               }
            ],
            "code":{
               "coding":[
                  {
                     "code":"1000",
                     "display":"Hepatitis A  B  C Panel",
                     "system":"99USL"
                  }
               ]
            },
            "effectiveDateTime":"2012-06-28T07:01:00+06:00",
            "status":"registered",
            "specimen":[
               {
                  "reference":"Specimen/07070707-0707-4707-8707-070707070707"
               }
            ],
            "subject":{
               "reference":"Patient/06060606-0606-4606-8606-060606060606"
            }
         },
         "request":{
            "method":"PUT",
            "url":"DiagnosticReport/08080808-0808-4808-8808-080808080808"
         }
      }
   ],
   "timestamp":"2005-02-11T18:41:01.112211Z",
   "identifier":{
      "value":"NIST-LOI_5.0_1.1-NG"
   }
}
