{
   "timestamp":"2005-02-11T18:41:01.112211Z",
   "identifier":{
      "value":"NIST-LOI_5.0_1.1-NG"
   },
   "resourceType":"Bundle",
   "type":"transaction",
   "entry":[
      {
         "resource":{
            "resourceType":"Organization",
            "identifier":[
               {
                  "value":"NIST EHR Facility"
               }
            ],
            "id":"01010101-0101-4101-8101-010101010101"
         },
         "request":{
            "method":"PUT",
            "url":"Organization/01010101-0101-4101-8101-010101010101"
         }
      },
      {
         "resource":{
            "id":"02020202-0202-4202-8202-020202020202",
            "resourceType":"Organization",
            "identifier":[
               {
                  "value":"NIST Lab Facility"
               }
            ]
         },
         "request":{
            "method":"PUT",
            "url":"Organization/02020202-0202-4202-8202-020202020202"
         }
      },
      {
         "request":{
            "method":"PUT",
            "url":"MessageHeader/03030303-0303-4303-8303-030303030303"
         },
         "resource":{
            "resourceType":"MessageHeader",
            "source":{
               "endpoint":"unknown",
               "name":"NIST EHR"
            },
            "sender":{
               "reference":"Organization/01010101-0101-4101-8101-010101010101"
            },
            "destination":[
               {
                  "receiver":{
                     "reference":"Organization/02020202-0202-4202-8202-020202020202"
                  },
                  "name":"NIST Test Lab APP",
                  "endpoint":"unknown"
               }
            ],
            "eventCoding":{
               "system":"http://terminology.hl7.org/CodeSystem/v2-0003",
               "code":"O21",
               "display":"OML^O21^OML_O21"
            },
            "meta":{
               "tag":[
                  {
                     "code":"T",
                     "system":"http://terminology.hl7.org/CodeSystem/v2-0103"
                  },
                  {
                     "system":"http://terminology.hl7.org/CodeSystem/v2-0207"
                  }
               ]
            },
            "id":"03030303-0303-4303-8303-030303030303"
         }
      },
      {
         "request":{
            "method":"PUT",
            "url":"Device/04040404-0404-4404-8404-040404040404"
         },
         "resource":{
            "identifier":[
               {
                  "value":"NIST EHR"
               }
            ],
            "id":"04040404-0404-4404-8404-040404040404",
            "resourceType":"Device"
         }
      },
      {
         "resource":{
            "id":"05050505-0505-4505-8505-050505050505",
            "resourceType":"Provenance",
            "agent":[
               {
                  "who":{
                     "reference":"Device/04040404-0404-4404-8404-040404040404"
                  }
               }
            ],
            "recorded":"2005-02-11T18:41:01.112211Z",
            "target":[
               {
                  "reference":"MessageHeader/03030303-0303-4303-8303-030303030303"
               }
            ]
         },
         "request":{
            "url":"Provenance/05050505-0505-4505-8505-050505050505",
            "method":"PUT"
         }
      },
      {
         "resource":{
            "address":[
               {
                  "line":[
                     "144 East 12th Street"
                  ],
                  "city":"Los Angeles",
                  "state":"CA",
                  "postalCode":"90012",
                  "use":"home"
               }
            ],
            "resourceType":"Patient",
            "id":"06060606-0606-4606-8606-060606060606",
            "birthDate":"1982-03-04",
            "gender":"female",
            "active":true,
            "name":[
               {
                  "family":"Wilson",
                  "given":[
                     "Patrice",
                     "Natasha"
                  ],
                  "use":"official"
               }
            ],
            "identifier":[
               {
                  "value":"PATID5421",
                  "type":{
                     "coding":[
                        {
                           "code":"MR"
                        }
                     ]
                  }
               },
               {
                  "system":"http://hl7.org/fhir/sid/us-ssn",
                  "type":{
                     "coding":[
                        {
                           "system":"http://terminology.hl7.org/CodeSystem/v2-0203",
                           "code":"SB"
                        }
                     ]
                  }
               },
               {
                  "type":{
                     "coding":[
                        {
                           "code":"DL",
                           "system":"http://terminology.hl7.org/CodeSystem/v2-0203"
                        }
                     ]
                  }
               }
            ],
            "multipleBirthBoolean":false
         },
         "request":{
            "method":"PUT",
            "url":"Patient/06060606-0606-4606-8606-060606060606"
         }
      },
      {
         "resource":{
            "subject":{
               "reference":"Patient/06060606-0606-4606-8606-060606060606"
            },
            "id":"07070707-0707-4707-8707-070707070707",
            "resourceType":"Specimen"
         },
         "request":{
            "method":"PUT",
            "url":"Specimen/07070707-0707-4707-8707-070707070707"
         }
      },
      {
         "resource":{
            "specimen":[
               {
                  "reference":"Specimen/07070707-0707-4707-8707-070707070707"
               }
            ],
            "subject":{
               "reference":"Patient/06060606-0606-4606-8606-060606060606"
            },
            "id":"08080808-0808-4808-8808-080808080808",
            "resourceType":"DiagnosticReport",
            "identifier":[
               {
                  "value":"ORD448811",
                  "type":{
                     "coding":[
                        {
                           "code":"PLAC",
                           "system":"http://terminology.hl7.org/CodeSystem/v2-0203"
                        }
                     ]
                  }
               },
               {
                  "value":"ORD448811",
                  "type":{
                     "coding":[
                        {
                           "system":"http://terminology.hl7.org/CodeSystem/v2-0203",
                           "code":"PLAC"
                        }
                     ]
                  }
               }
            ],
            "code":{
               "coding":[
                  {
                     "system":"99USL",
                     "code":"1000",
                     "display":"Hepatitis A  B  C Panel"
                  }
               ]
            },
            "effectiveDateTime":"2012-06-28T07:01:00+06:00",
            "status":"registered"
         },
         "request":{
            "method":"PUT",
            "url":"DiagnosticReport/08080808-0808-4808-8808-080808080808"
         }
      }
   ]
}
