{
   "timestamp":"2005-02-11T18:41:01.112211Z",
   "identifier":{
      "value":"NIST-LOI_5.0_1.1-GU"
   },
   "resourceType":"Bundle",
   "type":"transaction",
   "entry":[
      {
         "resource":{
            "identifier":[
               {
                  "value":"NIST EHR Facility"
               },
               {
                  "type":{
                     "coding":[
                        {
                           "system":"http://terminology.hl7.org/CodeSystem/v2-0301",
                           "code":"ISO"
                        }
                     ]
                  },
                  "system":"urn:ietf:rfc:3986",
                  "value":"2.16.840.1.113883.3.72.5.23"
               }
            ],
            "id":"01010101-0101-4101-8101-010101010101",
            "resourceType":"Organization"
         },
         "request":{
            "url":"Organization/01010101-0101-4101-8101-010101010101",
            "method":"PUT"
         }
      },
      {
         "resource":{
            "resourceType":"Organization",
            "identifier":[
               {
                  "value":"NIST Lab Facility"
               },
               {
                  "system":"urn:ietf:rfc:3986",
                  "value":"2.16.840.1.113883.3.72.5.21",
                  "type":{
                     "coding":[
                        {
                           "system":"http://terminology.hl7.org/CodeSystem/v2-0301",
                           "code":"ISO"
                        }
                     ]
                  }
               }
            ],
            "id":"02020202-0202-4202-8202-020202020202"
         },
         "request":{
            "method":"PUT",
            "url":"Organization/02020202-0202-4202-8202-020202020202"
         }
      },
      {
         "resource":{
            "destination":[
               {
                  "name":"NIST Test Lab APP",
                  "endpoint":"urn:oid:2.16.840.1.113883.3.72.5.20",
                  "receiver":{
                     "reference":"Organization/02020202-0202-4202-8202-020202020202"
                  }
               }
            ],
            "eventCoding":{
               "system":"http://terminology.hl7.org/CodeSystem/v2-0003",
               "code":"O21",
               "display":"OML^O21^OML_O21"
            },
            "meta":{
               "tag":[
                  {
                     "system":"http://terminology.hl7.org/CodeSystem/v2-0103",
                     "code":"T"
                  },
                  {
                     "system":"http://terminology.hl7.org/CodeSystem/v2-0207"
                  }
               ]
            },
            "id":"03030303-0303-4303-8303-030303030303",
            "resourceType":"MessageHeader",
            "source":{
               "endpoint":"urn:oid:2.16.840.1.113883.3.72.5.22",
               "name":"NIST EHR"
            },
            "sender":{
               "reference":"Organization/01010101-0101-4101-8101-010101010101"
            }
         },
         "request":{
            "method":"PUT",
            "url":"MessageHeader/03030303-0303-4303-8303-030303030303"
         }
      },
      {
         "request":{
            "method":"PUT",
            "url":"Device/04040404-0404-4404-8404-040404040404"
         },
         "resource":{
            "id":"04040404-0404-4404-8404-040404040404",
            "resourceType":"Device",
            "identifier":[
               {
                  "value":"NIST EHR"
               },
               {
                  "value":"2.16.840.1.113883.3.72.5.22",
                  "type":{
                     "coding":[
                        {
                           "system":"http://terminology.hl7.org/CodeSystem/v2-0301",
                           "code":"ISO"
                        }
                     ]
                  },
                  "system":"urn:ietf:rfc:3986"
               }
            ]
         }
      },
      {
         "resource":{
            "resourceType":"Provenance",
            "agent":[
               {
                  "who":{
                     "reference":"Device/04040404-0404-4404-8404-040404040404"
                  }
               }
            ],
            "recorded":"2005-02-11T18:41:01.112211Z",
            "target":[
               {
                  "reference":"MessageHeader/03030303-0303-4303-8303-030303030303"
               }
            ],
            "id":"05050505-0505-4505-8505-050505050505"
         },
         "request":{
            "url":"Provenance/05050505-0505-4505-8505-050505050505",
            "method":"PUT"
         }
      },
      {
         "resource":{
            "name":[
               {
                  "use":"maiden",
                  "family":"Smirnoff",
                  "given":[
                     "Peggy"
                  ]
               }
            ],
            "active":true,
            "address":[
               {
                  "city":"Los Angeles",
                  "state":"CA",
                  "postalCode":"90012",
                  "use":"home",
                  "line":[
                     "450 Bauchet Street"
                  ]
               }
            ],
            "resourceType":"Patient",
            "birthDate":"1975-04-01",
            "identifier":[
               {
                  "value":"PATID1239",
                  "type":{
                     "coding":[
                        {
                           "code":"MR"
                        }
                     ]
                  }
               },
               {
                  "type":{
                     "coding":[
                        {
                           "system":"http://terminology.hl7.org/CodeSystem/v2-0203",
                           "code":"SB"
                        }
                     ]
                  },
                  "system":"http://hl7.org/fhir/sid/us-ssn"
               },
               {
                  "type":{
                     "coding":[
                        {
                           "code":"DL",
                           "system":"http://terminology.hl7.org/CodeSystem/v2-0203"
                        }
                     ]
                  }
               }
            ],
            "id":"06060606-0606-4606-8606-060606060606",
            "multipleBirthBoolean":false,
            "gender":"female"
         },
         "request":{
            "url":"Patient/06060606-0606-4606-8606-060606060606",
            "method":"PUT"
         }
      },
      {
         "resource":{
            "code":{
               "coding":[
                  {
                     "system":"LN",
                     "code":"67471-3",
                     "display":"Pregnancy"
                  }
               ]
            },
            "valueCodeableConcept":{
               "coding":[
                  {
                     "system":"HL70353",
                     "code":"UNK",
                     "display":"Unknown"
                  },
                  {
                     "code":"3118003",
                     "display":"Possible, unconfirmed",
                     "system":"99USL"
                  }
               ],
               "text":"suspected, but unconfirmed - no test to date"
            },
            "status":"unknown",
            "effectiveDateTime":"2012-06-28T00:00:00+06:00",
            "subject":{
               "reference":"Patient/06060606-0606-4606-8606-060606060606"
            },
            "id":"07070707-0707-4707-8707-070707070707",
            "resourceType":"Observation"
         },
         "request":{
            "method":"PUT",
            "url":"Observation/07070707-0707-4707-8707-070707070707"
         }
      },
      {
         "resource":{
            "resourceType":"Specimen",
            "subject":{
               "reference":"Patient/06060606-0606-4606-8606-060606060606"
            },
            "id":"08080808-0808-4808-8808-080808080808"
         },
         "request":{
            "method":"PUT",
            "url":"Specimen/08080808-0808-4808-8808-080808080808"
         }
      },
      {
         "resource":{
            "effectiveDateTime":"2012-06-28T07:01:00+06:00",
            "status":"registered",
            "specimen":[
               {
                  "reference":"Specimen/08080808-0808-4808-8808-080808080808"
               }
            ],
            "subject":{
               "reference":"Patient/06060606-0606-4606-8606-060606060606"
            },
            "id":"09090909-0909-4909-8909-090909090909",
            "resourceType":"DiagnosticReport",
            "identifier":[
               {
                  "type":{
                     "coding":[
                        {
                           "code":"PLAC",
                           "system":"http://terminology.hl7.org/CodeSystem/v2-0203"
                        }
                     ]
                  },
                  "value":"ORD448811"
               },
               {
                  "type":{
                     "coding":[
                        {
                           "system":"http://terminology.hl7.org/CodeSystem/v2-0203",
                           "code":"PLAC"
                        }
                     ]
                  },
                  "value":"ORD448811"
               }
            ],
            "code":{
               "coding":[
                  {
                     "system":"99USL",
                     "code":"1000",
                     "display":"Hepatitis A B  C Panel_WithReflex"
                  }
               ]
            }
         },
         "request":{
            "method":"PUT",
            "url":"DiagnosticReport/09090909-0909-4909-8909-090909090909"
         }
      }
   ]
}
