{
   "identifier":{
      "value":"20251014154101-639"
   },
   "resourceType":"Bundle",
   "type":"transaction",
   "entry":[
      {
         "resource":{
            "resourceType":"Organization",
            "identifier":[
               {
                  "value":"CG3_SICU"
               }
            ],
            "id":"01010101-0101-4101-8101-010101010101"
         },
         "request":{
            "method":"PUT",
            "url":"Organization/01010101-0101-4101-8101-010101010101"
         }
      },
      {
         "resource":{
            "identifier":[
               {
                  "value":"GH_CSF"
               }
            ],
            "id":"02020202-0202-4202-8202-020202020202",
            "resourceType":"Organization"
         },
         "request":{
            "method":"PUT",
            "url":"Organization/02020202-0202-4202-8202-020202020202"
         }
      },
      {
         "resource":{
            "id":"03030303-0303-4303-8303-030303030303",
            "resourceType":"MessageHeader",
            "source":{
               "endpoint":"unknown",
               "name":"HL7"
            },
            "sender":{
               "reference":"Organization/01010101-0101-4101-8101-010101010101"
            },
            "destination":[
               {
                  "endpoint":"GH_CSF",
                  "name":"CE_CENTRAL",
                  "receiver":{
                     "reference":"Organization/02020202-0202-4202-8202-020202020202"
                  }
               }
            ],
            "eventCoding":{
               "code":"R01",
               "display":"ORU^R01^",
               "system":"http://terminology.hl7.org/CodeSystem/v2-0003"
            },
            "meta":{
               "tag":[
                  {
                     "system":"http://terminology.hl7.org/CodeSystem/v2-0103",
                     "code":"P"
                  },
                  {
                     "system":"http://terminology.hl7.org/CodeSystem/v2-0207"
                  }
               ]
            }
         },
         "request":{
            "method":"PUT",
            "url":"MessageHeader/03030303-0303-4303-8303-030303030303"
         }
      },
      {
         "resource":{
            "resourceType":"Device",
            "identifier":[
               {
                  "value":"HL7"
               }
            ],
            "id":"04040404-0404-4404-8404-040404040404"
         },
         "request":{
            "method":"PUT",
            "url":"Device/04040404-0404-4404-8404-040404040404"
         }
      },
      {
         "request":{
            "url":"Provenance/05050505-0505-4505-8505-050505050505",
            "method":"PUT"
         },
         "resource":{
            "recorded":"2025-10-14T15:41:01.14101014Z",
            "target":[
               {
                  "reference":"MessageHeader/03030303-0303-4303-8303-030303030303"
               }
            ],
            "id":"05050505-0505-4505-8505-050505050505",
            "resourceType":"Provenance",
            "agent":[
               {
                  "who":{
                     "reference":"Device/04040404-0404-4404-8404-040404040404"
                  }
               }
            ]
         }
      },
      {
         "resource":{
            "resourceType":"Patient",
            "identifier":[
               {
                  "type":{
                     "coding":[
                        {
                           "code":"MR"
                        }
                     ]
                  },
                  "value":"100002"
               },
               {
                  "type":{
                     "coding":[
                        {
                           "system":"http://terminology.hl7.org/CodeSystem/v2-0203",
                           "code":"SB"
                        }
                     ]
                  },
                  "system":"http://hl7.org/fhir/sid/us-ssn"
               },
               {
                  "type":{
                     "coding":[
                        {
                           "code":"DL"
                        }
                     ]
                  }
               }
            ],
            "name":[
               {
                  "family":"RAPID"
               }
            ],
            "active":true,
            "id":"06060606-0606-4606-8606-060606060606"
         },
         "request":{
            "method":"PUT",
            "url":"Patient/06060606-0606-4606-8606-060606060606"
         }
      },
      {
         "resource":{
            "subject":{
               "reference":"Patient/06060606-0606-4606-8606-060606060606"
            },
            "id":"07070707-0707-4707-8707-070707070707",
            "resourceType":"Observation",
            "code":{
               "coding":[
                  {
                     "code":"HR"
                  }
               ]
            },
            "valueString":"73",
            "status":"unknown"
         },
         "request":{
            "method":"PUT",
            "url":"Observation/07070707-0707-4707-8707-070707070707"
         }
      },
      {
         "request":{
            "method":"PUT",
            "url":"Observation/08080808-0808-4808-8808-080808080808"
         },
         "resource":{
            "subject":{
               "reference":"Patient/06060606-0606-4606-8606-060606060606"
            },
            "id":"08080808-0808-4808-8808-080808080808",
            "resourceType":"Observation",
            "code":{
               "coding":[
                  {
                     "code":"PVC"
                  }
               ]
            },
            "valueString":"15",
            "status":"unknown"
         }
      },
      {
         "resource":{
            "subject":{
               "reference":"Patient/06060606-0606-4606-8606-060606060606"
            },
            "id":"09090909-0909-4909-8909-090909090909",
            "resourceType":"Observation",
            "code":{
               "coding":[
                  {
                     "code":"STI"
                  }
               ]
            },
            "valueString":"-0.5",
            "status":"unknown"
         },
         "request":{
            "method":"PUT",
            "url":"Observation/09090909-0909-4909-8909-090909090909"
         }
      },
      {
         "resource":{
            "subject":{
               "reference":"Patient/06060606-0606-4606-8606-060606060606"
            },
            "id":"0a0a0a0a-0a0a-4a0a-8a0a-0a0a0a0a0a0a",
            "resourceType":"Observation",
            "code":{
               "coding":[
                  {
                     "code":"STII"
                  }
               ]
            },
            "valueString":"0.0",
            "status":"unknown"
         },
         "request":{
            "method":"PUT",
            "url":"Observation/0a0a0a0a-0a0a-4a0a-8a0a-0a0a0a0a0a0a"
         }
      },
      {
         "request":{
            "method":"PUT",
            "url":"Observation/0b0b0b0b-0b0b-4b0b-8b0b-0b0b0b0b0b0b"
         },
         "resource":{
            "valueString":"0.5",
            "status":"unknown",
            "subject":{
               "reference":"Patient/06060606-0606-4606-8606-060606060606"
            },
            "id":"0b0b0b0b-0b0b-4b0b-8b0b-0b0b0b0b0b0b",
            "resourceType":"Observation",
            "code":{
               "coding":[
                  {
                     "code":"STIII"
                  }
               ]
            }
         }
      },
      {
         "resource":{
            "valueString":"0.0",
            "status":"unknown",
            "subject":{
               "reference":"Patient/06060606-0606-4606-8606-060606060606"
            },
            "id":"0c0c0c0c-0c0c-4c0c-8c0c-0c0c0c0c0c0c",
            "resourceType":"Observation",
            "code":{
               "coding":[
                  {
                     "code":"STV1"
                  }
               ]
            }
         },
         "request":{
            "method":"PUT",
            "url":"Observation/0c0c0c0c-0c0c-4c0c-8c0c-0c0c0c0c0c0c"
         }
      },
      {
         "resource":{
            "resourceType":"Observation",
            "code":{
               "coding":[
                  {
                     "code":"STAVR"
                  }
               ]
            },
            "valueString":"0.2",
            "status":"unknown",
            "subject":{
               "reference":"Patient/06060606-0606-4606-8606-060606060606"
            },
            "id":"0d0d0d0d-0d0d-4d0d-8d0d-0d0d0d0d0d0d"
         },
         "request":{
            "method":"PUT",
            "url":"Observation/0d0d0d0d-0d0d-4d0d-8d0d-0d0d0d0d0d0d"
         }
      },
      {
         "resource":{
            "id":"0e0e0e0e-0e0e-4e0e-8e0e-0e0e0e0e0e0e",
            "resourceType":"Observation",
            "code":{
               "coding":[
                  {
                     "code":"STAVL"
                  }
               ]
            },
            "valueString":"-0.5",
            "status":"unknown",
            "subject":{
               "reference":"Patient/06060606-0606-4606-8606-060606060606"
            }
         },
         "request":{
            "method":"PUT",
            "url":"Observation/0e0e0e0e-0e0e-4e0e-8e0e-0e0e0e0e0e0e"
         }
      },
      {
         "resource":{
            "resourceType":"Observation",
            "code":{
               "coding":[
                  {
                     "code":"STAVF"
                  }
               ]
            },
            "valueString":"0.2",
            "status":"unknown",
            "subject":{
               "reference":"Patient/06060606-0606-4606-8606-060606060606"
            },
            "id":"0f0f0f0f-0f0f-4f0f-8f0f-0f0f0f0f0f0f"
         },
         "request":{
            "method":"PUT",
            "url":"Observation/0f0f0f0f-0f0f-4f0f-8f0f-0f0f0f0f0f0f"
         }
      },
      {
         "resource":{
            "id":"10101010-1010-4010-9010-101010101010",
            "resourceType":"Observation",
            "code":{
               "coding":[
                  {
                     "code":"RR"
                  }
               ]
            },
            "valueString":"15",
            "status":"unknown",
            "subject":{
               "reference":"Patient/06060606-0606-4606-8606-060606060606"
            }
         },
         "request":{
            "method":"PUT",
            "url":"Observation/10101010-1010-4010-9010-101010101010"
         }
      },
      {
         "request":{
            "method":"PUT",
            "url":"Observation/11111111-1111-4111-9111-111111111111"
         },
         "resource":{
            "code":{
               "coding":[
                  {
                     "code":"CO2EX"
                  }
               ]
            },
            "valueString":"32",
            "status":"unknown",
            "subject":{
               "reference":"Patient/06060606-0606-4606-8606-060606060606"
            },
            "id":"11111111-1111-4111-9111-111111111111",
            "resourceType":"Observation"
         }
      },
      {
         "resource":{
            "id":"12121212-1212-4212-9212-121212121212",
            "resourceType":"Observation",
            "code":{
               "coding":[
                  {
                     "code":"CO2IN"
                  }
               ]
            },
            "valueString":"0",
            "status":"unknown",
            "subject":{
               "reference":"Patient/06060606-0606-4606-8606-060606060606"
            }
         },
         "request":{
            "method":"PUT",
            "url":"Observation/12121212-1212-4212-9212-121212121212"
         }
      },
      {
         "resource":{
            "status":"unknown",
            "subject":{
               "reference":"Patient/06060606-0606-4606-8606-060606060606"
            },
            "id":"13131313-1313-4313-9313-131313131313",
            "resourceType":"Observation",
            "code":{
               "coding":[
                  {
                     "code":"CO2RR"
                  }
               ]
            },
            "valueString":"14"
         },
         "request":{
            "method":"PUT",
            "url":"Observation/13131313-1313-4313-9313-131313131313"
         }
      },
      {
         "request":{
            "method":"PUT",
            "url":"Observation/14141414-1414-4414-9414-141414141414"
         },
         "resource":{
            "code":{
               "coding":[
                  {
                     "code":"SPO2R"
                  }
               ]
            },
            "valueString":"73",
            "status":"unknown",
            "subject":{
               "reference":"Patient/06060606-0606-4606-8606-060606060606"
            },
            "id":"14141414-1414-4414-9414-141414141414",
            "resourceType":"Observation"
         }
      },
      {
         "resource":{
            "id":"15151515-1515-4515-9515-151515151515",
            "resourceType":"Observation",
            "code":{
               "coding":[
                  {
                     "code":"SPO2P"
                  }
               ]
            },
            "valueString":"99",
            "status":"unknown",
            "subject":{
               "reference":"Patient/06060606-0606-4606-8606-060606060606"
            }
         },
         "request":{
            "method":"PUT",
            "url":"Observation/15151515-1515-4515-9515-151515151515"
         }
      },
      {
         "request":{
            "method":"PUT",
            "url":"Specimen/16161616-1616-4616-9616-161616161616"
         },
         "resource":{
            "id":"16161616-1616-4616-9616-161616161616",
            "resourceType":"Specimen",
            "subject":{
               "reference":"Patient/06060606-0606-4606-8606-060606060606"
            }
         }
      },
      {
         "resource":{
            "status":"registered",
            "specimen":[
               {
                  "reference":"Specimen/16161616-1616-4616-9616-161616161616"
               }
            ],
            "subject":{
               "reference":"Patient/06060606-0606-4606-8606-060606060606"
            },
            "id":"17171717-1717-4717-9717-171717171717",
            "resourceType":"DiagnosticReport",
            "code":{
               "coding":[
                  {
                     "code":"1003-3"
                  }
               ]
            },
            "effectiveDateTime":"2025-10-14T15:41:01+10:00"
         },
         "request":{
            "url":"DiagnosticReport/17171717-1717-4717-9717-171717171717",
            "method":"PUT"
         }
      }
   ],
   "timestamp":"2025-10-14T15:41:01.14101014Z"
}
