{
   "timestamp":"2025-10-14T15:40:01.14101014Z",
   "identifier":{
      "value":"20251014154001-425"
   },
   "resourceType":"Bundle",
   "type":"transaction",
   "entry":[
      {
         "resource":{
            "identifier":[
               {
                  "value":"CG3_SICU"
               }
            ],
            "id":"01010101-0101-4101-8101-010101010101",
            "resourceType":"Organization"
         },
         "request":{
            "method":"PUT",
            "url":"Organization/01010101-0101-4101-8101-010101010101"
         }
      },
      {
         "resource":{
            "id":"02020202-0202-4202-8202-020202020202",
            "resourceType":"Organization",
            "identifier":[
               {
                  "value":"GH_CSF"
               }
            ]
         },
         "request":{
            "url":"Organization/02020202-0202-4202-8202-020202020202",
            "method":"PUT"
         }
      },
      {
         "request":{
            "method":"PUT",
            "url":"MessageHeader/03030303-0303-4303-8303-030303030303"
         },
         "resource":{
            "meta":{
               "tag":[
                  {
                     "code":"P",
                     "system":"http://terminology.hl7.org/CodeSystem/v2-0103"
                  },
                  {
                     "system":"http://terminology.hl7.org/CodeSystem/v2-0207"
                  }
               ]
            },
            "id":"03030303-0303-4303-8303-030303030303",
            "resourceType":"MessageHeader",
            "source":{
               "endpoint":"unknown",
               "name":"HL7"
            },
            "sender":{
               "reference":"Organization/01010101-0101-4101-8101-010101010101"
            },
            "destination":[
               {
                  "endpoint":"GH_CSF",
                  "name":"CE_CENTRAL",
                  "receiver":{
                     "reference":"Organization/02020202-0202-4202-8202-020202020202"
                  }
               }
            ],
            "eventCoding":{
               "system":"http://terminology.hl7.org/CodeSystem/v2-0003",
               "code":"R01"
            }
         }
      },
      {
         "resource":{
            "resourceType":"Device",
            "identifier":[
               {
                  "value":"HL7"
               }
            ],
            "id":"04040404-0404-4404-8404-040404040404"
         },
         "request":{
            "method":"PUT",
            "url":"Device/04040404-0404-4404-8404-040404040404"
         }
      },
      {
         "resource":{
            "agent":[
               {
                  "who":{
                     "reference":"Device/04040404-0404-4404-8404-040404040404"
                  }
               }
            ],
            "recorded":"2025-10-14T15:40:01.14101014Z",
            "target":[
               {
                  "reference":"MessageHeader/03030303-0303-4303-8303-030303030303"
               }
            ],
            "id":"05050505-0505-4505-8505-050505050505",
            "resourceType":"Provenance"
         },
         "request":{
            "method":"PUT",
            "url":"Provenance/05050505-0505-4505-8505-050505050505"
         }
      },
      {
         "resource":{
            "identifier":[
               {
                  "type":{
                     "coding":[
                        {
                           "code":"MR"
                        }
                     ]
                  },
                  "value":"10002"
               },
               {
                  "type":{
                     "coding":[
                        {
                           "code":"SB"
                        }
                     ]
                  }
               },
               {
                  "type":{
                     "coding":[
                        {
                           "code":"DL"
                        }
                     ]
                  }
               }
            ],
            "name":[
               {
                  "family":"RAPID"
               }
            ],
            "active":true,
            "id":"06060606-0606-4606-8606-060606060606",
            "resourceType":"Patient"
         },
         "request":{
            "url":"Patient/06060606-0606-4606-8606-060606060606",
            "method":"PUT"
         }
      },
      {
         "resource":{
            "id":"07070707-0707-4707-8707-070707070707",
            "resourceType":"Observation",
            "code":{
               "coding":[
                  {
                     "code":"HR"
                  }
               ]
            },
            "valueString":"68",
            "status":"unknown",
            "subject":{
               "reference":"Patient/06060606-0606-4606-8606-060606060606"
            }
         },
         "request":{
            "method":"PUT",
            "url":"Observation/07070707-0707-4707-8707-070707070707"
         }
      },
      {
         "request":{
            "url":"Observation/08080808-0808-4808-8808-080808080808",
            "method":"PUT"
         },
         "resource":{
            "id":"08080808-0808-4808-8808-080808080808",
            "resourceType":"Observation",
            "code":{
               "coding":[
                  {
                     "code":"PVC"
                  }
               ]
            },
            "valueString":"0",
            "status":"unknown",
            "subject":{
               "reference":"Patient/06060606-0606-4606-8606-060606060606"
            }
         }
      },
      {
         "resource":{
            "subject":{
               "reference":"Patient/06060606-0606-4606-8606-060606060606"
            },
            "id":"09090909-0909-4909-8909-090909090909",
            "resourceType":"Observation",
            "code":{
               "coding":[
                  {
                     "code":"RR"
                  }
               ]
            },
            "valueString":"14",
            "status":"unknown"
         },
         "request":{
            "method":"PUT",
            "url":"Observation/09090909-0909-4909-8909-090909090909"
         }
      },
      {
         "resource":{
            "resourceType":"Observation",
            "code":{
               "coding":[
                  {
                     "code":"CO2EX"
                  }
               ]
            },
            "valueString":"28",
            "status":"unknown",
            "subject":{
               "reference":"Patient/06060606-0606-4606-8606-060606060606"
            },
            "id":"0a0a0a0a-0a0a-4a0a-8a0a-0a0a0a0a0a0a"
         },
         "request":{
            "method":"PUT",
            "url":"Observation/0a0a0a0a-0a0a-4a0a-8a0a-0a0a0a0a0a0a"
         }
      },
      {
         "resource":{
            "resourceType":"Observation",
            "code":{
               "coding":[
                  {
                     "code":"CO2IN"
                  }
               ]
            },
            "valueString":"3",
            "status":"unknown",
            "subject":{
               "reference":"Patient/06060606-0606-4606-8606-060606060606"
            },
            "id":"0b0b0b0b-0b0b-4b0b-8b0b-0b0b0b0b0b0b"
         },
         "request":{
            "method":"PUT",
            "url":"Observation/0b0b0b0b-0b0b-4b0b-8b0b-0b0b0b0b0b0b"
         }
      },
      {
         "resource":{
            "valueString":"14",
            "status":"unknown",
            "subject":{
               "reference":"Patient/06060606-0606-4606-8606-060606060606"
            },
            "id":"0c0c0c0c-0c0c-4c0c-8c0c-0c0c0c0c0c0c",
            "resourceType":"Observation",
            "code":{
               "coding":[
                  {
                     "code":"CO2RR"
                  }
               ]
            }
         },
         "request":{
            "url":"Observation/0c0c0c0c-0c0c-4c0c-8c0c-0c0c0c0c0c0c",
            "method":"PUT"
         }
      },
      {
         "resource":{
            "resourceType":"Observation",
            "code":{
               "coding":[
                  {
                     "code":"SPO2R"
                  }
               ]
            },
            "valueString":"71",
            "status":"unknown",
            "subject":{
               "reference":"Patient/06060606-0606-4606-8606-060606060606"
            },
            "id":"0d0d0d0d-0d0d-4d0d-8d0d-0d0d0d0d0d0d"
         },
         "request":{
            "method":"PUT",
            "url":"Observation/0d0d0d0d-0d0d-4d0d-8d0d-0d0d0d0d0d0d"
         }
      },
      {
         "resource":{
            "resourceType":"Observation",
            "code":{
               "coding":[
                  {
                     "code":"SPO2P"
                  }
               ]
            },
            "valueString":"100",
            "status":"unknown",
            "subject":{
               "reference":"Patient/06060606-0606-4606-8606-060606060606"
            },
            "id":"0e0e0e0e-0e0e-4e0e-8e0e-0e0e0e0e0e0e"
         },
         "request":{
            "method":"PUT",
            "url":"Observation/0e0e0e0e-0e0e-4e0e-8e0e-0e0e0e0e0e0e"
         }
      },
      {
         "resource":{
            "subject":{
               "reference":"Patient/06060606-0606-4606-8606-060606060606"
            },
            "id":"0f0f0f0f-0f0f-4f0f-8f0f-0f0f0f0f0f0f",
            "resourceType":"Specimen"
         },
         "request":{
            "url":"Specimen/0f0f0f0f-0f0f-4f0f-8f0f-0f0f0f0f0f0f",
            "method":"PUT"
         }
      },
      {
         "resource":{
            "resourceType":"DiagnosticReport",
            "code":{
               "coding":[
                  {
                     "code":"1003-3"
                  }
               ]
            },
            "effectiveDateTime":"2025-10-14T15:40:01+10:00",
            "status":"registered",
            "specimen":[
               {
                  "reference":"Specimen/0f0f0f0f-0f0f-4f0f-8f0f-0f0f0f0f0f0f"
               }
            ],
            "subject":{
               "reference":"Patient/06060606-0606-4606-8606-060606060606"
            },
            "id":"10101010-1010-4010-9010-101010101010"
         },
         "request":{
            "method":"PUT",
            "url":"DiagnosticReport/10101010-1010-4010-9010-101010101010"
         }
      }
   ]
}
