{
   "timestamp":"2020-05-08T13:06:44.8558Z",
   "identifier":{
      "value":"7"
   },
   "resourceType":"Bundle",
   "type":"transaction",
   "entry":[
      {
         "request":{
            "method":"PUT",
            "url":"Organization/01010101-0101-4101-8101-010101010101"
         },
         "resource":{
            "resourceType":"Organization",
            "address":[
               {
                  "country":"44"
               }
            ],
            "identifier":[
               {
                  "value":"SFAC"
               }
            ],
            "id":"01010101-0101-4101-8101-010101010101"
         }
      },
      {
         "resource":{
            "resourceType":"Organization",
            "identifier":[
               {
                  "value":"RFAC"
               }
            ],
            "id":"02020202-0202-4202-8202-020202020202"
         },
         "request":{
            "method":"PUT",
            "url":"Organization/02020202-0202-4202-8202-020202020202"
         }
      },
      {
         "resource":{
            "destination":[
               {
                  "endpoint":"RFAC",
                  "name":"RAPP",
                  "receiver":{
                     "reference":"Organization/02020202-0202-4202-8202-020202020202"
                  }
               }
            ],
            "eventCoding":{
               "display":"ORU^R01^",
               "system":"http://terminology.hl7.org/CodeSystem/v2-0003",
               "code":"R01"
            },
            "meta":{
               "tag":[
                  {
                     "system":"http://terminology.hl7.org/CodeSystem/v2-0103",
                     "code":"T"
                  },
                  {
                     "system":"http://terminology.hl7.org/CodeSystem/v2-0207"
                  }
               ]
            },
            "id":"03030303-0303-4303-8303-030303030303",
            "resourceType":"MessageHeader",
            "source":{
               "endpoint":"unknown",
               "name":"SIMHOSP"
            },
            "sender":{
               "reference":"Organization/01010101-0101-4101-8101-010101010101"
            }
         },
         "request":{
            "method":"PUT",
            "url":"MessageHeader/03030303-0303-4303-8303-030303030303"
         }
      },
      {
         "resource":{
            "id":"04040404-0404-4404-8404-040404040404",
            "resourceType":"Device",
            "identifier":[
               {
                  "value":"SIMHOSP"
               }
            ]
         },
         "request":{
            "method":"PUT",
            "url":"Device/04040404-0404-4404-8404-040404040404"
         }
      },
      {
         "resource":{
            "recorded":"2020-05-08T13:06:44.8558Z",
            "target":[
               {
                  "reference":"MessageHeader/03030303-0303-4303-8303-030303030303"
               }
            ],
            "id":"05050505-0505-4505-8505-050505050505",
            "resourceType":"Provenance",
            "agent":[
               {
                  "who":{
                     "reference":"Device/04040404-0404-4404-8404-040404040404"
                  }
               }
            ]
         },
         "request":{
            "method":"PUT",
            "url":"Provenance/05050505-0505-4505-8505-050505050505"
         }
      },
      {
         "resource":{
            "telecom":[
               {
                  "value":"070 0130 6118",
                  "use":"home"
               }
            ],
            "address":[
               {
                  "country":"GBR",
                  "line":[
                     "44 Name House",
                     "Flanker Road"
                  ],
                  "city":"Westerham",
                  "postalCode":"PK17 5OI"
               }
            ],
            "id":"06060606-0606-4606-8606-060606060606",
            "birthDate":"1937-12-27",
            "resourceType":"Patient",
            "gender":"female",
            "active":true,
            "name":[
               {
                  "use":"anonymous",
                  "family":"Trivedi",
                  "given":[
                     "Jacqueline",
                     "Pauline"
                  ],
                  "prefix":[
                     "Mrs"
                  ]
               }
            ],
            "identifier":[
               {
                  "value":"1076943130",
                  "type":{
                     "coding":[
                        {
                           "code":"MRN"
                        }
                     ]
                  }
               },
               {
                  "type":{
                     "coding":[
                        {
                           "code":"MRN"
                        }
                     ]
                  },
                  "value":"1076943130"
               },
               {
                  "value":"2914785070",
                  "type":{
                     "coding":[
                        {
                           "code":"NHSNMBR"
                        }
                     ]
                  }
               },
               {
                  "system":"http://hl7.org/fhir/sid/us-ssn",
                  "type":{
                     "coding":[
                        {
                           "system":"http://terminology.hl7.org/CodeSystem/v2-0203",
                           "code":"SB"
                        }
                     ]
                  }
               },
               {
                  "type":{
                     "coding":[
                        {
                           "code":"DL"
                        }
                     ]
                  }
               }
            ]
         },
         "request":{
            "method":"PUT",
            "url":"Patient/06060606-0606-4606-8606-060606060606"
         }
      },
      {
         "request":{
            "method":"PUT",
            "url":"Observation/07070707-0707-4707-8707-070707070707"
         },
         "resource":{
            "status":"final",
            "effectiveDateTime":"2020-05-08T13:06:44+05:00",
            "subject":{
               "reference":"Patient/06060606-0606-4606-8606-060606060606"
            },
            "id":"07070707-0707-4707-8707-070707070707",
            "resourceType":"Observation",
            "code":{
               "coding":[
                  {
                     "code":"tt-0003-02",
                     "display":"Potassium",
                     "system":"WinPath"
                  }
               ]
            },
            "valueQuantity":{
               "unit":"MMOLL",
               "value":5.1
            },
            "referenceRange":[
               {
                  "text":"3.5 - 5.3"
               }
            ]
         }
      },
      {
         "resource":{
            "resourceType":"Observation",
            "code":{
               "coding":[
                  {
                     "system":"WinPath",
                     "code":"tt-0003-03",
                     "display":"Sodium"
                  }
               ]
            },
            "valueQuantity":{
               "unit":"MMOLL",
               "value":145.01
            },
            "referenceRange":[
               {
                  "text":"133 - 146"
               }
            ],
            "status":"final",
            "effectiveDateTime":"2020-05-08T13:06:44+05:00",
            "subject":{
               "reference":"Patient/06060606-0606-4606-8606-060606060606"
            },
            "id":"08080808-0808-4808-8808-080808080808"
         },
         "request":{
            "method":"PUT",
            "url":"Observation/08080808-0808-4808-8808-080808080808"
         }
      },
      {
         "request":{
            "method":"PUT",
            "url":"Observation/09090909-0909-4909-8909-090909090909"
         },
         "resource":{
            "code":{
               "coding":[
                  {
                     "code":"tt-0003-04",
                     "display":"Urea",
                     "system":"WinPath"
                  }
               ]
            },
            "valueQuantity":{
               "unit":"MMOLL",
               "value":5.45
            },
            "referenceRange":[
               {
                  "text":"2.5 - 7.8"
               }
            ],
            "status":"final",
            "effectiveDateTime":"2020-05-08T13:06:44+05:00",
            "subject":{
               "reference":"Patient/06060606-0606-4606-8606-060606060606"
            },
            "id":"09090909-0909-4909-8909-090909090909",
            "resourceType":"Observation"
         }
      },
      {
         "resource":{
            "valueQuantity":{
               "unit":"MLMIN"
            },
            "code":{
               "coding":[
                  {
                     "code":"tt-0003-05",
                     "display":"eGFR (MDRD)",
                     "system":"WinPath"
                  }
               ]
            },
            "id":"0a0a0a0a-0a0a-4a0a-8a0a-0a0a0a0a0a0a",
            "effectiveDateTime":"2020-05-08T13:06:44+05:00",
            "status":"final",
            "resourceType":"Observation",
            "referenceRange":[
               {
                  "text":"[ ]"
               }
            ],
            "subject":{
               "reference":"Patient/06060606-0606-4606-8606-060606060606"
            },
            "valueString":"<15"
         },
         "request":{
            "url":"Observation/0a0a0a0a-0a0a-4a0a-8a0a-0a0a0a0a0a0a",
            "method":"PUT"
         }
      },
      {
         "request":{
            "method":"PUT",
            "url":"Observation/0b0b0b0b-0b0b-4b0b-8b0b-0b0b0b0b0b0b"
         },
         "resource":{
            "valueQuantity":{
               "unit":"UMOLL",
               "value":86.25
            },
            "referenceRange":[
               {
                  "text":"49 - 92"
               }
            ],
            "status":"final",
            "effectiveDateTime":"2020-05-08T13:06:44+05:00",
            "subject":{
               "reference":"Patient/06060606-0606-4606-8606-060606060606"
            },
            "id":"0b0b0b0b-0b0b-4b0b-8b0b-0b0b0b0b0b0b",
            "resourceType":"Observation",
            "code":{
               "coding":[
                  {
                     "system":"WinPath",
                     "code":"tt-0003-01",
                     "display":"Creatinine"
                  }
               ]
            }
         }
      },
      {
         "resource":{
            "receivedTime":"2020-05-08T13:06:44+05:00",
            "subject":{
               "reference":"Patient/06060606-0606-4606-8606-060606060606"
            },
            "id":"0c0c0c0c-0c0c-4c0c-8c0c-0c0c0c0c0c0c",
            "resourceType":"Specimen"
         },
         "request":{
            "url":"Specimen/0c0c0c0c-0c0c-4c0c-8c0c-0c0c0c0c0c0c",
            "method":"PUT"
         }
      },
      {
         "request":{
            "url":"DiagnosticReport/0d0d0d0d-0d0d-4d0d-8d0d-0d0d0d0d0d0d",
            "method":"PUT"
         },
         "resource":{
            "subject":{
               "reference":"Patient/06060606-0606-4606-8606-060606060606"
            },
            "effectiveDateTime":"2020-05-08T13:06:44+05:00",
            "code":{
               "coding":[
                  {
                     "code":"us-0003",
                     "display":"UREA AND ELECTROLYTES",
                     "system":"WinPath"
                  }
               ]
            },
            "resourceType":"DiagnosticReport",
            "specimen":[
               {
                  "reference":"Specimen/0c0c0c0c-0c0c-4c0c-8c0c-0c0c0c0c0c0c"
               }
            ],
            "id":"0d0d0d0d-0d0d-4d0d-8d0d-0d0d0d0d0d0d",
            "status":"final",
            "identifier":[
               {
                  "value":"3529823179",
                  "type":{
                     "coding":[
                        {
                           "system":"http://terminology.hl7.org/CodeSystem/v2-0203",
                           "code":"PLAC"
                        }
                     ]
                  }
               },
               {
                  "value":"2427424202",
                  "type":{
                     "coding":[
                        {
                           "system":"http://terminology.hl7.org/CodeSystem/v2-0203",
                           "code":"FILL"
                        }
                     ]
                  }
               },
               {
                  "type":{
                     "coding":[
                        {
                           "code":"PLAC",
                           "system":"http://terminology.hl7.org/CodeSystem/v2-0203"
                        }
                     ]
                  },
                  "value":"3529823179"
               },
               {
                  "type":{
                     "coding":[
                        {
                           "code":"FILL",
                           "system":"http://terminology.hl7.org/CodeSystem/v2-0203"
                        }
                     ]
                  },
                  "value":"2427424202"
               }
            ],
            "issued":"2020-05-08T13:06:44.8558Z"
         }
      }
   ]
}
