{
   "identifier":{
      "value":"20251014154001-425"
   },
   "resourceType":"Bundle",
   "type":"transaction",
   "entry":[
      {
         "resource":{
            "id":"01010101-0101-4101-8101-010101010101",
            "resourceType":"Organization",
            "identifier":[
               {
                  "value":"CG3_SICU"
               }
            ]
         },
         "request":{
            "method":"PUT",
            "url":"Organization/01010101-0101-4101-8101-010101010101"
         }
      },
      {
         "request":{
            "method":"PUT",
            "url":"Organization/02020202-0202-4202-8202-020202020202"
         },
         "resource":{
            "resourceType":"Organization",
            "identifier":[
               {
                  "value":"GH_CSF"
               }
            ],
            "id":"02020202-0202-4202-8202-020202020202"
         }
      },
      {
         "resource":{
            "destination":[
               {
                  "endpoint":"unknown",
                  "receiver":{
                     "reference":"Organization/02020202-0202-4202-8202-020202020202"
                  },
                  "name":"CE_CENTRAL"
               }
            ],
            "eventCoding":{
               "code":"R01",
               "display":"ORU^R01^",
               "system":"http://terminology.hl7.org/CodeSystem/v2-0003"
            },
            "meta":{
               "tag":[
                  {
                     "system":"http://terminology.hl7.org/CodeSystem/v2-0103",
                     "code":"P"
                  },
                  {
                     "system":"http://terminology.hl7.org/CodeSystem/v2-0207"
                  }
               ]
            },
            "id":"03030303-0303-4303-8303-030303030303",
            "resourceType":"MessageHeader",
            "source":{
               "name":"HL7",
               "endpoint":"unknown"
            },
            "sender":{
               "reference":"Organization/01010101-0101-4101-8101-010101010101"
            }
         },
         "request":{
            "url":"MessageHeader/03030303-0303-4303-8303-030303030303",
            "method":"PUT"
         }
      },
      {
         "request":{
            "method":"PUT",
            "url":"Device/04040404-0404-4404-8404-040404040404"
         },
         "resource":{
            "id":"04040404-0404-4404-8404-040404040404",
            "resourceType":"Device",
            "identifier":[
               {
                  "value":"HL7"
               }
            ]
         }
      },
      {
         "request":{
            "method":"PUT",
            "url":"Provenance/05050505-0505-4505-8505-050505050505"
         },
         "resource":{
            "target":[
               {
                  "reference":"MessageHeader/03030303-0303-4303-8303-030303030303"
               }
            ],
            "id":"05050505-0505-4505-8505-050505050505",
            "resourceType":"Provenance",
            "agent":[
               {
                  "who":{
                     "reference":"Device/04040404-0404-4404-8404-040404040404"
                  }
               }
            ],
            "recorded":"2025-10-14T15:40:01.14101014Z"
         }
      },
      {
         "request":{
            "method":"PUT",
            "url":"Patient/06060606-0606-4606-8606-060606060606"
         },
         "resource":{
            "active":true,
            "id":"06060606-0606-4606-8606-060606060606",
            "resourceType":"Patient",
            "identifier":[
               {
                  "type":{
                     "coding":[
                        {
                           "code":"MR"
                        }
                     ]
                  },
                  "value":"10002"
               },
               {
                  "system":"http://hl7.org/fhir/sid/us-ssn",
                  "type":{
                     "coding":[
                        {
                           "system":"http://terminology.hl7.org/CodeSystem/v2-0203",
                           "code":"SB"
                        }
                     ]
                  }
               },
               {
                  "type":{
                     "coding":[
                        {
                           "system":"http://terminology.hl7.org/CodeSystem/v2-0203",
                           "code":"DL"
                        }
                     ]
                  }
               }
            ],
            "name":[
               {
                  "family":"RAPID"
               }
            ],
            "multipleBirthBoolean":false
         }
      },
      {
         "resource":{
            "subject":{
               "reference":"Patient/06060606-0606-4606-8606-060606060606"
            },
            "id":"07070707-0707-4707-8707-070707070707",
            "resourceType":"Observation",
            "code":{
               "coding":[
                  {
                     "code":"HR"
                  }
               ]
            },
            "valueString":"68",
            "status":"unknown"
         },
         "request":{
            "url":"Observation/07070707-0707-4707-8707-070707070707",
            "method":"PUT"
         }
      },
      {
         "resource":{
            "code":{
               "coding":[
                  {
                     "code":"PVC"
                  }
               ]
            },
            "valueString":"0",
            "status":"unknown",
            "subject":{
               "reference":"Patient/06060606-0606-4606-8606-060606060606"
            },
            "id":"08080808-0808-4808-8808-080808080808",
            "resourceType":"Observation"
         },
         "request":{
            "url":"Observation/08080808-0808-4808-8808-080808080808",
            "method":"PUT"
         }
      },
      {
         "resource":{
            "resourceType":"Observation",
            "code":{
               "coding":[
                  {
                     "code":"RR"
                  }
               ]
            },
            "valueString":"14",
            "status":"unknown",
            "subject":{
               "reference":"Patient/06060606-0606-4606-8606-060606060606"
            },
            "id":"09090909-0909-4909-8909-090909090909"
         },
         "request":{
            "url":"Observation/09090909-0909-4909-8909-090909090909",
            "method":"PUT"
         }
      },
      {
         "resource":{
            "valueString":"28",
            "status":"unknown",
            "subject":{
               "reference":"Patient/06060606-0606-4606-8606-060606060606"
            },
            "id":"0a0a0a0a-0a0a-4a0a-8a0a-0a0a0a0a0a0a",
            "resourceType":"Observation",
            "code":{
               "coding":[
                  {
                     "code":"CO2EX"
                  }
               ]
            }
         },
         "request":{
            "url":"Observation/0a0a0a0a-0a0a-4a0a-8a0a-0a0a0a0a0a0a",
            "method":"PUT"
         }
      },
      {
         "resource":{
            "status":"unknown",
            "subject":{
               "reference":"Patient/06060606-0606-4606-8606-060606060606"
            },
            "id":"0b0b0b0b-0b0b-4b0b-8b0b-0b0b0b0b0b0b",
            "resourceType":"Observation",
            "code":{
               "coding":[
                  {
                     "code":"CO2IN"
                  }
               ]
            },
            "valueString":"3"
         },
         "request":{
            "method":"PUT",
            "url":"Observation/0b0b0b0b-0b0b-4b0b-8b0b-0b0b0b0b0b0b"
         }
      },
      {
         "request":{
            "method":"PUT",
            "url":"Observation/0c0c0c0c-0c0c-4c0c-8c0c-0c0c0c0c0c0c"
         },
         "resource":{
            "code":{
               "coding":[
                  {
                     "code":"CO2RR"
                  }
               ]
            },
            "valueString":"14",
            "status":"unknown",
            "subject":{
               "reference":"Patient/06060606-0606-4606-8606-060606060606"
            },
            "id":"0c0c0c0c-0c0c-4c0c-8c0c-0c0c0c0c0c0c",
            "resourceType":"Observation"
         }
      },
      {
         "resource":{
            "resourceType":"Observation",
            "code":{
               "coding":[
                  {
                     "code":"SPO2R"
                  }
               ]
            },
            "valueString":"71",
            "status":"unknown",
            "subject":{
               "reference":"Patient/06060606-0606-4606-8606-060606060606"
            },
            "id":"0d0d0d0d-0d0d-4d0d-8d0d-0d0d0d0d0d0d"
         },
         "request":{
            "url":"Observation/0d0d0d0d-0d0d-4d0d-8d0d-0d0d0d0d0d0d",
            "method":"PUT"
         }
      },
      {
         "resource":{
            "code":{
               "coding":[
                  {
                     "code":"SPO2P"
                  }
               ]
            },
            "valueString":"100",
            "status":"unknown",
            "subject":{
               "reference":"Patient/06060606-0606-4606-8606-060606060606"
            },
            "id":"0e0e0e0e-0e0e-4e0e-8e0e-0e0e0e0e0e0e",
            "resourceType":"Observation"
         },
         "request":{
            "method":"PUT",
            "url":"Observation/0e0e0e0e-0e0e-4e0e-8e0e-0e0e0e0e0e0e"
         }
      },
      {
         "resource":{
            "resourceType":"Specimen",
            "subject":{
               "reference":"Patient/06060606-0606-4606-8606-060606060606"
            },
            "id":"0f0f0f0f-0f0f-4f0f-8f0f-0f0f0f0f0f0f"
         },
         "request":{
            "method":"PUT",
            "url":"Specimen/0f0f0f0f-0f0f-4f0f-8f0f-0f0f0f0f0f0f"
         }
      },
      {
         "resource":{
            "effectiveDateTime":"2025-10-14T15:40:01+10:00",
            "status":"registered",
            "specimen":[
               {
                  "reference":"Specimen/0f0f0f0f-0f0f-4f0f-8f0f-0f0f0f0f0f0f"
               }
            ],
            "subject":{
               "reference":"Patient/06060606-0606-4606-8606-060606060606"
            },
            "id":"10101010-1010-4010-9010-101010101010",
            "resourceType":"DiagnosticReport",
            "code":{
               "coding":[
                  {
                     "code":"1003-3"
                  }
               ]
            }
         },
         "request":{
            "method":"PUT",
            "url":"DiagnosticReport/10101010-1010-4010-9010-101010101010"
         }
      }
   ],
   "timestamp":"2025-10-14T15:40:01.14101014Z"
}
