{
   "timestamp":"2014-08-11T19:38:05.118811Z",
   "identifier":{
      "value":"8971"
   },
   "resourceType":"Bundle",
   "type":"transaction",
   "entry":[
      {
         "request":{
            "url":"Organization/01010101-0101-4101-8101-010101010101",
            "method":"PUT"
         },
         "resource":{
            "identifier":[
               {
                  "value":"RAL"
               }
            ],
            "address":[
               {
                  "country":"44"
               }
            ],
            "id":"01010101-0101-4101-8101-010101010101",
            "resourceType":"Organization"
         }
      },
      {
         "resource":{
            "identifier":[
               {
                  "value":"RAL"
               }
            ],
            "id":"02020202-0202-4202-8202-020202020202",
            "resourceType":"Organization"
         },
         "request":{
            "method":"PUT",
            "url":"Organization/02020202-0202-4202-8202-020202020202"
         }
      },
      {
         "resource":{
            "destination":[
               {
                  "receiver":{
                     "reference":"Organization/02020202-0202-4202-8202-020202020202"
                  },
                  "endpoint":"RAL",
                  "name":"STREAMS"
               }
            ],
            "eventCoding":{
               "display":"ORU^R01^",
               "system":"http://terminology.hl7.org/CodeSystem/v2-0003",
               "code":"R01"
            },
            "meta":{
               "tag":[
                  {
                     "code":"T",
                     "system":"http://terminology.hl7.org/CodeSystem/v2-0103"
                  },
                  {
                     "system":"http://terminology.hl7.org/CodeSystem/v2-0207"
                  }
               ]
            },
            "id":"03030303-0303-4303-8303-030303030303",
            "resourceType":"MessageHeader",
            "source":{
               "endpoint":"unknown",
               "name":"CERNER"
            },
            "sender":{
               "reference":"Organization/01010101-0101-4101-8101-010101010101"
            }
         },
         "request":{
            "method":"PUT",
            "url":"MessageHeader/03030303-0303-4303-8303-030303030303"
         }
      },
      {
         "request":{
            "method":"PUT",
            "url":"Device/04040404-0404-4404-8404-040404040404"
         },
         "resource":{
            "resourceType":"Device",
            "identifier":[
               {
                  "value":"CERNER"
               }
            ],
            "id":"04040404-0404-4404-8404-040404040404"
         }
      },
      {
         "resource":{
            "target":[
               {
                  "reference":"MessageHeader/03030303-0303-4303-8303-030303030303"
               }
            ],
            "id":"05050505-0505-4505-8505-050505050505",
            "resourceType":"Provenance",
            "agent":[
               {
                  "who":{
                     "reference":"Device/04040404-0404-4404-8404-040404040404"
                  }
               }
            ],
            "recorded":"2014-08-11T19:38:05.118811Z"
         },
         "request":{
            "method":"PUT",
            "url":"Provenance/05050505-0505-4505-8505-050505050505"
         }
      },
      {
         "resource":{
            "resourceType":"Patient",
            "active":true,
            "name":[
               {
                  "prefix":[
                     "Mrs"
                  ],
                  "use":"official",
                  "family":"Bradley",
                  "given":[
                     "Angela",
                     "Bridget"
                  ]
               }
            ],
            "address":[
               {
                  "line":[
                     "140 Heater Lane"
                  ],
                  "city":"Ilford",
                  "postalCode":"JN83 4OE",
                  "country":"GBR"
               }
            ],
            "gender":"female",
            "identifier":[
               {
                  "value":"1325463202",
                  "type":{
                     "coding":[
                        {
                           "code":"MRN"
                        }
                     ]
                  }
               },
               {
                  "type":{
                     "coding":[
                        {
                           "code":"MRN"
                        }
                     ]
                  },
                  "value":"1325463202"
               },
               {
                  "value":"3789692603",
                  "type":{
                     "coding":[
                        {
                           "code":"NHSNMBR"
                        }
                     ]
                  }
               },
               {
                  "system":"http://hl7.org/fhir/sid/us-ssn",
                  "type":{
                     "coding":[
                        {
                           "code":"SB",
                           "system":"http://terminology.hl7.org/CodeSystem/v2-0203"
                        }
                     ]
                  }
               },
               {
                  "type":{
                     "coding":[
                        {
                           "code":"DL"
                        }
                     ]
                  }
               }
            ],
            "birthDate":"1977-04-20",
            "telecom":[
               {
                  "use":"home",
                  "value":"020 2295 8931"
               }
            ],
            "id":"06060606-0606-4606-8606-060606060606"
         },
         "request":{
            "method":"PUT",
            "url":"Patient/06060606-0606-4606-8606-060606060606"
         }
      },
      {
         "resource":{
            "code":{
               "coding":[
                  {
                     "display":"APELV",
                     "code":"APELV"
                  }
               ]
            },
            "valueString":"No fracture or dislocation is present. The joint spaces are normal.  Soft tissue is normal.",
            "status":"final",
            "effectiveDateTime":"2014-08-11T19:38:05+08:00",
            "subject":{
               "reference":"Patient/06060606-0606-4606-8606-060606060606"
            },
            "id":"07070707-0707-4707-8707-070707070707",
            "resourceType":"Observation"
         },
         "request":{
            "url":"Observation/07070707-0707-4707-8707-070707070707",
            "method":"PUT"
         }
      },
      {
         "resource":{
            "id":"08080808-0808-4808-8808-080808080808",
            "resourceType":"Specimen",
            "receivedTime":"2014-08-11T19:38:05+08:00",
            "subject":{
               "reference":"Patient/06060606-0606-4606-8606-060606060606"
            }
         },
         "request":{
            "method":"PUT",
            "url":"Specimen/08080808-0808-4808-8808-080808080808"
         }
      },
      {
         "resource":{
            "effectiveDateTime":"2014-08-11T19:38:05+08:00",
            "code":{
               "coding":[
                  {
                     "display":"AP Pelvis",
                     "code":"AP Pelvis"
                  }
               ]
            },
            "identifier":[
               {
                  "type":{
                     "coding":[
                        {
                           "system":"http://terminology.hl7.org/CodeSystem/v2-0203",
                           "code":"PLAC"
                        }
                     ]
                  },
                  "value":"1909829541"
               },
               {
                  "type":{
                     "coding":[
                        {
                           "code":"FILL",
                           "system":"http://terminology.hl7.org/CodeSystem/v2-0203"
                        }
                     ]
                  },
                  "value":"3496264291"
               },
               {
                  "value":"1909829541",
                  "type":{
                     "coding":[
                        {
                           "code":"PLAC",
                           "system":"http://terminology.hl7.org/CodeSystem/v2-0203"
                        }
                     ]
                  }
               },
               {
                  "value":"3496264291",
                  "type":{
                     "coding":[
                        {
                           "code":"FILL",
                           "system":"http://terminology.hl7.org/CodeSystem/v2-0203"
                        }
                     ]
                  }
               }
            ],
            "status":"final",
            "specimen":[
               {
                  "reference":"Specimen/08080808-0808-4808-8808-080808080808"
               }
            ],
            "issued":"2014-08-11T19:38:05.118811Z",
            "resourceType":"DiagnosticReport",
            "id":"09090909-0909-4909-8909-090909090909",
            "subject":{
               "reference":"Patient/06060606-0606-4606-8606-060606060606"
            }
         },
         "request":{
            "method":"PUT",
            "url":"DiagnosticReport/09090909-0909-4909-8909-090909090909"
         }
      }
   ]
}
